{"1xwsadhldt6wxwm":{"data":[{"internal_node_id":"0.0-0.0","phase":"Consent","rt":16691,"subject":"1xwsadhldt6wxwm","time_elapsed":16761,"trial_index":0,"trial_type":"external-html","url":"forms/consent.html"},{"internal_node_id":"0.0-1.0","key_press":32,"phase":"Welcome","rt":2345,"stimulus":"Welcome to the experiment. This experiment should take no longer than 30 minutes. Press any key to begin.","subject":"1xwsadhldt6wxwm","time_elapsed":19111,"trial_index":1,"trial_type":"html-keyboard-response"},{"internal_node_id":"0.0-2.0","subject":"1xwsadhldt6wxwm","success":true,"time_elapsed":40362,"trial_index":2,"trial_type":"fullscreen"},{"fullscreen":true,"internal_node_id":"0.0-3.0-0.0","key_press":32,"phase":"Instructions","rt":31272,"stimulus":"<p>Please read these instructions carefully.</p><p>In this experiment, you will be listening to sounds made by babies between the ages of 0-36 months. Your task will be to try and identify characteristics of the baby making those sounds (age, sex, familial language). You will respond by selecting the corresponding button when presented. Please make these judgements based on your initial impressions. Also, when prompted to provide a word, respond by typing in the word 'puppy'. When presented with audio buttons, you must listen to all audio clips before responding and if there are multiple audio clips they are guaranteed to be from the same child.</p><p>Press any key to begin.</p>","subject":"1xwsadhldt6wxwm","time_elapsed":71636,"trial_index":3,"trial_type":"html-keyboard-response"},{"fullscreen":true,"internal_node_id":"0.0-3.0-1.0","phase":"Attention_Check","responses":"{\"Attention_check\":\"puppy\"}","rt":4352,"subject":"1xwsadhldt6wxwm","time_elapsed":77024,"trial_index":4,"trial_type":"survey-text"},{"internal_node_id":"0.0-4.0-0.0","key_press":80,"rt":0,"stimulus":"jspsych-6-2/examples/sound/speech_blue.mp3","subject":"1xwsadhldt6wxwm","time_elapsed":84418,"trial_index":5,"trial_type":"audio-keyboard-response"},{"internal_node_id":"0.0-4.0-1.0","key_press":89,"rt":2630,"stimulus":"jspsych-6-2/examples/sound/speech_green.mp3","subject":"1xwsadhldt6wxwm","time_elapsed":87662,"trial_index":6,"trial_type":"audio-keyboard-response"},{"internal_node_id":"0.0-4.1-0.1","key_press":66,"rt":3428,"stimulus":"jspsych-6-2/examples/sound/speech_blue.mp3","subject":"1xwsadhldt6wxwm","time_elapsed":91594,"trial_index":7,"trial_type":"audio-keyboard-response"},{"internal_node_id":"0.0-4.1-1.1","key_press":78,"rt":4644,"stimulus":"jspsych-6-2/examples/sound/speech_green.mp3","subject":"1xwsadhldt6wxwm","time_elapsed":96740,"trial_index":8,"trial_type":"audio-keyboard-response"},{"age_group":"8-18","button_pressed":"0","correct":1,"fullscreen":true,"gender":"M","internal_node_id":"0.0-5.0-0.0-0.0","language":"Non-English","phase":"Sex","rt":21428,"stimulus":"<audio src=\"audio/selected_audio_files/0228528061.wav\" id = \"clip_8787Tseltal0228528061\"></audio><button id=\"audio_button_8787Tseltal0228528061\" onclick=\"ChangeColour(audio_button_8787Tseltal0228528061); window.which_clicked = UpdateClicked(this.id,window.which_clicked);window.which_clicked = EnableButtons(window.which_clicked); PlaySound(clip_8787Tseltal0228528061);\" class=\"jspsych-btn\" style=\"background-color: white; height:50px;width:100px\">Clip 1</button><audio src=\"audio/selected_audio_files/0173482820.wav\" id = \"clip_8787Tseltal0173482820\"></audio><button id=\"audio_button_8787Tseltal0173482820\" onclick=\"ChangeColour(audio_button_8787Tseltal0173482820); window.which_clicked = UpdateClicked(this.id,window.which_clicked);window.which_clicked = EnableButtons(window.which_clicked); PlaySound(clip_8787Tseltal0173482820);\" class=\"jspsych-btn\" style=\"background-color: white; height:50px;width:100px\">Clip 2</button><audio src=\"audio/selected_audio_files/0675181716.wav\" id = \"clip_8787Tseltal0675181716\"></audio><button id=\"audio_button_8787Tseltal0675181716\" onclick=\"ChangeColour(audio_button_8787Tseltal0675181716); window.which_clicked = UpdateClicked(this.id,window.which_clicked);window.which_clicked = EnableButtons(window.which_clicked); PlaySound(clip_8787Tseltal0675181716);\" class=\"jspsych-btn\" style=\"background-color: white; height:50px;width:100px\">Clip 3</button><audio src=\"audio/selected_audio_files/0735100190.wav\" id = \"clip_8787Tseltal0735100190\"></audio><button id=\"audio_button_8787Tseltal0735100190\" onclick=\"ChangeColour(audio_button_8787Tseltal0735100190); window.which_clicked = UpdateClicked(this.id,window.which_clicked);window.which_clicked = EnableButtons(window.which_clicked); PlaySound(clip_8787Tseltal0735100190);\" class=\"jspsych-btn\" style=\"background-color: white; height:50px;width:100px\">Clip 4</button><audio src=\"audio/selected_audio_files/0106877811.wav\" id = \"clip_8787Tseltal0106877811\"></audio><button id=\"audio_button_8787Tseltal0106877811\" onclick=\"ChangeColour(audio_button_8787Tseltal0106877811); window.which_clicked = UpdateClicked(this.id,window.which_clicked);window.which_clicked = EnableButtons(window.which_clicked); PlaySound(clip_8787Tseltal0106877811);\" class=\"jspsych-btn\" style=\"background-color: white; height:50px;width:100px\">Clip 5</button><audio src=\"audio/selected_audio_files/0886810441.wav\" id = \"clip_8787Tseltal0886810441\"></audio><button id=\"audio_button_8787Tseltal0886810441\" onclick=\"ChangeColour(audio_button_8787Tseltal0886810441); window.which_clicked = UpdateClicked(this.id,window.which_clicked);window.which_clicked = EnableButtons(window.which_clicked); PlaySound(clip_8787Tseltal0886810441);\" class=\"jspsych-btn\" style=\"background-color: white; height:50px;width:100px\">Clip 6</button><audio src=\"audio/selected_audio_files/0764717491.wav\" id = \"clip_8787Tseltal0764717491\"></audio><button id=\"audio_button_8787Tseltal0764717491\" onclick=\"ChangeColour(audio_button_8787Tseltal0764717491); window.which_clicked = UpdateClicked(this.id,window.which_clicked);window.which_clicked = EnableButtons(window.which_clicked); PlaySound(clip_8787Tseltal0764717491);\" class=\"jspsych-btn\" style=\"background-color: white; height:50px;width:100px\">Clip 7</button><audio src=\"audio/selected_audio_files/0803949469.wav\" id = \"clip_8787Tseltal0803949469\"></audio><button id=\"audio_button_8787Tseltal0803949469\" onclick=\"ChangeColour(audio_button_8787Tseltal0803949469); window.which_clicked = UpdateClicked(this.id,window.which_clicked);window.which_clicked = EnableButtons(window.which_clicked); PlaySound(clip_8787Tseltal0803949469);\" class=\"jspsych-btn\" style=\"background-color: white; height:50px;width:100px\">Clip 8</button><audio src=\"audio/selected_audio_files/0700522612.wav\" id = \"clip_8787Tseltal0700522612\"></audio><button id=\"audio_button_8787Tseltal0700522612\" onclick=\"ChangeColour(audio_button_8787Tseltal0700522612); window.which_clicked = UpdateClicked(this.id,window.which_clicked);window.which_clicked = EnableButtons(window.which_clicked); PlaySound(clip_8787Tseltal0700522612);\" class=\"jspsych-btn\" style=\"background-color: white; height:50px;width:100px\">Clip 9</button><audio src=\"audio/selected_audio_files/0118632629.wav\" id = \"clip_8787Tseltal0118632629\"></audio><button id=\"audio_button_8787Tseltal0118632629\" onclick=\"ChangeColour(audio_button_8787Tseltal0118632629); window.which_clicked = UpdateClicked(this.id,window.which_clicked);window.which_clicked = EnableButtons(window.which_clicked); PlaySound(clip_8787Tseltal0118632629);\" class=\"jspsych-btn\" style=\"background-color: white; height:50px;width:100px\">Clip 10</button>","subject":"1xwsadhldt6wxwm","time_elapsed":118683,"trial_index":9,"trial_type":"html-button-response","unique_id":"8787Tseltal"},{"age_group":"8-18","button_pressed":"1","correct":0,"fullscreen":true,"gender":"M","internal_node_id":"0.0-5.0-0.0-0.1","language":"Non-English","phase":"Sex","rt":14193,"stimulus":"<audio src=\"audio/selected_audio_files/0660238741.wav\" id = \"clip_7326Tseltal0660238741\"></audio><button id=\"audio_button_7326Tseltal0660238741\" onclick=\"ChangeColour(audio_button_7326Tseltal0660238741); window.which_clicked = UpdateClicked(this.id,window.which_clicked);window.which_clicked = EnableButtons(window.which_clicked); PlaySound(clip_7326Tseltal0660238741);\" class=\"jspsych-btn\" style=\"background-color: white; height:50px;width:100px\">Clip 1</button><audio src=\"audio/selected_audio_files/0311693651.wav\" id = \"clip_7326Tseltal0311693651\"></audio><button id=\"audio_button_7326Tseltal0311693651\" onclick=\"ChangeColour(audio_button_7326Tseltal0311693651); window.which_clicked = UpdateClicked(this.id,window.which_clicked);window.which_clicked = EnableButtons(window.which_clicked); PlaySound(clip_7326Tseltal0311693651);\" class=\"jspsych-btn\" style=\"background-color: white; height:50px;width:100px\">Clip 2</button><audio src=\"audio/selected_audio_files/0867238387.wav\" id = \"clip_7326Tseltal0867238387\"></audio><button id=\"audio_button_7326Tseltal0867238387\" onclick=\"ChangeColour(audio_button_7326Tseltal0867238387); window.which_clicked = UpdateClicked(this.id,window.which_clicked);window.which_clicked = EnableButtons(window.which_clicked); PlaySound(clip_7326Tseltal0867238387);\" class=\"jspsych-btn\" style=\"background-color: white; height:50px;width:100px\">Clip 3</button><audio src=\"audio/selected_audio_files/0530049847.wav\" id = \"clip_7326Tseltal0530049847\"></audio><button id=\"audio_button_7326Tseltal0530049847\" onclick=\"ChangeColour(audio_button_7326Tseltal0530049847); window.which_clicked = UpdateClicked(this.id,window.which_clicked);window.which_clicked = EnableButtons(window.which_clicked); PlaySound(clip_7326Tseltal0530049847);\" class=\"jspsych-btn\" style=\"background-color: white; height:50px;width:100px\">Clip 4</button><audio src=\"audio/selected_audio_files/0853477388.wav\" id = \"clip_7326Tseltal0853477388\"></audio><button id=\"audio_button_7326Tseltal0853477388\" onclick=\"ChangeColour(audio_button_7326Tseltal0853477388); window.which_clicked = UpdateClicked(this.id,window.which_clicked);window.which_clicked = EnableButtons(window.which_clicked); PlaySound(clip_7326Tseltal0853477388);\" class=\"jspsych-btn\" style=\"background-color: white; height:50px;width:100px\">Clip 5</button><audio src=\"audio/selected_audio_files/0333704138.wav\" id = \"clip_7326Tseltal0333704138\"></audio><button id=\"audio_button_7326Tseltal0333704138\" onclick=\"ChangeColour(audio_button_7326Tseltal0333704138); window.which_clicked = UpdateClicked(this.id,window.which_clicked);window.which_clicked = EnableButtons(window.which_clicked); PlaySound(clip_7326Tseltal0333704138);\" class=\"jspsych-btn\" style=\"background-color: white; height:50px;width:100px\">Clip 6</button><audio src=\"audio/selected_audio_files/0629259884.wav\" id = \"clip_7326Tseltal0629259884\"></audio><button id=\"audio_button_7326Tseltal0629259884\" onclick=\"ChangeColour(audio_button_7326Tseltal0629259884); window.which_clicked = UpdateClicked(this.id,window.which_clicked);window.which_clicked = EnableButtons(window.which_clicked); PlaySound(clip_7326Tseltal0629259884);\" class=\"jspsych-btn\" style=\"background-color: white; height:50px;width:100px\">Clip 7</button><audio src=\"audio/selected_audio_files/0523499199.wav\" id = \"clip_7326Tseltal0523499199\"></audio><button id=\"audio_button_7326Tseltal0523499199\" onclick=\"ChangeColour(audio_button_7326Tseltal0523499199); window.which_clicked = UpdateClicked(this.id,window.which_clicked);window.which_clicked = EnableButtons(window.which_clicked); PlaySound(clip_7326Tseltal0523499199);\" class=\"jspsych-btn\" style=\"background-color: white; height:50px;width:100px\">Clip 8</button><audio src=\"audio/selected_audio_files/0792978845.wav\" id = \"clip_7326Tseltal0792978845\"></audio><button id=\"audio_button_7326Tseltal0792978845\" onclick=\"ChangeColour(audio_button_7326Tseltal0792978845); window.which_clicked = UpdateClicked(this.id,window.which_clicked);window.which_clicked = EnableButtons(window.which_clicked); PlaySound(clip_7326Tseltal0792978845);\" class=\"jspsych-btn\" style=\"background-color: white; height:50px;width:100px\">Clip 9</button><audio src=\"audio/selected_audio_files/0425338666.wav\" id = \"clip_7326Tseltal0425338666\"></audio><button id=\"audio_button_7326Tseltal0425338666\" onclick=\"ChangeColour(audio_button_7326Tseltal0425338666); window.which_clicked = UpdateClicked(this.id,window.which_clicked);window.which_clicked = EnableButtons(window.which_clicked); PlaySound(clip_7326Tseltal0425338666);\" class=\"jspsych-btn\" style=\"background-color: white; height:50px;width:100px\">Clip 10</button>","subject":"1xwsadhldt6wxwm","time_elapsed":132890,"trial_index":10,"trial_type":"html-button-response","unique_id":"7326Tseltal"},{"age_group":"8-18","button_pressed":"0","correct":0,"fullscreen":true,"gender":"F","internal_node_id":"0.0-5.0-0.0-0.2","language":"Non-English","phase":"Sex","rt":9511,"stimulus":"<audio src=\"audio/selected_audio_files/0610647144.wav\" id = \"clip_14Tsimane0610647144\"></audio><button id=\"audio_button_14Tsimane0610647144\" onclick=\"ChangeColour(audio_button_14Tsimane0610647144); window.which_clicked = UpdateClicked(this.id,window.which_clicked);window.which_clicked = EnableButtons(window.which_clicked); PlaySound(clip_14Tsimane0610647144);\" class=\"jspsych-btn\" style=\"background-color: white; height:50px;width:100px\">Clip 1</button><audio src=\"audio/selected_audio_files/0716559168.wav\" id = \"clip_14Tsimane0716559168\"></audio><button id=\"audio_button_14Tsimane0716559168\" onclick=\"ChangeColour(audio_button_14Tsimane0716559168); window.which_clicked = UpdateClicked(this.id,window.which_clicked);window.which_clicked = EnableButtons(window.which_clicked); PlaySound(clip_14Tsimane0716559168);\" class=\"jspsych-btn\" style=\"background-color: white; height:50px;width:100px\">Clip 2</button><audio src=\"audio/selected_audio_files/0309352778.wav\" id = \"clip_14Tsimane0309352778\"></audio><button id=\"audio_button_14Tsimane0309352778\" onclick=\"ChangeColour(audio_button_14Tsimane0309352778); window.which_clicked = UpdateClicked(this.id,window.which_clicked);window.which_clicked = EnableButtons(window.which_clicked); PlaySound(clip_14Tsimane0309352778);\" class=\"jspsych-btn\" style=\"background-color: white; height:50px;width:100px\">Clip 3</button><audio src=\"audio/selected_audio_files/0335455626.wav\" id = \"clip_14Tsimane0335455626\"></audio><button id=\"audio_button_14Tsimane0335455626\" onclick=\"ChangeColour(audio_button_14Tsimane0335455626); window.which_clicked = UpdateClicked(this.id,window.which_clicked);window.which_clicked = EnableButtons(window.which_clicked); PlaySound(clip_14Tsimane0335455626);\" class=\"jspsych-btn\" style=\"background-color: white; height:50px;width:100px\">Clip 4</button><audio src=\"audio/selected_audio_files/0137027681.wav\" id = \"clip_14Tsimane0137027681\"></audio><button id=\"audio_button_14Tsimane0137027681\" onclick=\"ChangeColour(audio_button_14Tsimane0137027681); window.which_clicked = UpdateClicked(this.id,window.which_clicked);window.which_clicked = EnableButtons(window.which_clicked); PlaySound(clip_14Tsimane0137027681);\" class=\"jspsych-btn\" style=\"background-color: white; height:50px;width:100px\">Clip 5</button><audio src=\"audio/selected_audio_files/0763669354.wav\" id = \"clip_14Tsimane0763669354\"></audio><button id=\"audio_button_14Tsimane0763669354\" onclick=\"ChangeColour(audio_button_14Tsimane0763669354); window.which_clicked = UpdateClicked(this.id,window.which_clicked);window.which_clicked = EnableButtons(window.which_clicked); PlaySound(clip_14Tsimane0763669354);\" class=\"jspsych-btn\" style=\"background-color: white; height:50px;width:100px\">Clip 6</button><audio src=\"audio/selected_audio_files/0721246694.wav\" id = \"clip_14Tsimane0721246694\"></audio><button id=\"audio_button_14Tsimane0721246694\" onclick=\"ChangeColour(audio_button_14Tsimane0721246694); window.which_clicked = UpdateClicked(this.id,window.which_clicked);window.which_clicked = EnableButtons(window.which_clicked); PlaySound(clip_14Tsimane0721246694);\" class=\"jspsych-btn\" style=\"background-color: white; height:50px;width:100px\">Clip 7</button><audio src=\"audio/selected_audio_files/0386427048.wav\" id = \"clip_14Tsimane0386427048\"></audio><button id=\"audio_button_14Tsimane0386427048\" onclick=\"ChangeColour(audio_button_14Tsimane0386427048); window.which_clicked = UpdateClicked(this.id,window.which_clicked);window.which_clicked = EnableButtons(window.which_clicked); PlaySound(clip_14Tsimane0386427048);\" class=\"jspsych-btn\" style=\"background-color: white; height:50px;width:100px\">Clip 8</button><audio src=\"audio/selected_audio_files/0283505406.wav\" id = \"clip_14Tsimane0283505406\"></audio><button id=\"audio_button_14Tsimane0283505406\" onclick=\"ChangeColour(audio_button_14Tsimane0283505406); window.which_clicked = UpdateClicked(this.id,window.which_clicked);window.which_clicked = EnableButtons(window.which_clicked); PlaySound(clip_14Tsimane0283505406);\" class=\"jspsych-btn\" style=\"background-color: white; height:50px;width:100px\">Clip 9</button><audio src=\"audio/selected_audio_files/0542556925.wav\" id = \"clip_14Tsimane0542556925\"></audio><button id=\"audio_button_14Tsimane0542556925\" onclick=\"ChangeColour(audio_button_14Tsimane0542556925); window.which_clicked = UpdateClicked(this.id,window.which_clicked);window.which_clicked = EnableButtons(window.which_clicked); PlaySound(clip_14Tsimane0542556925);\" class=\"jspsych-btn\" style=\"background-color: white; height:50px;width:100px\">Clip 10</button>","subject":"1xwsadhldt6wxwm","time_elapsed":142416,"trial_index":11,"trial_type":"html-button-response","unique_id":"14Tsimane"},{"age_group":"8-18","button_pressed":"1","correct":1,"fullscreen":true,"gender":"F","internal_node_id":"0.0-5.0-0.0-0.3","language":"Non-English","phase":"Sex","rt":9360.99999999997,"stimulus":"<audio src=\"audio/selected_audio_files/0778364155.wav\" id = \"clip_11bTsimane0778364155\"></audio><button id=\"audio_button_11bTsimane0778364155\" onclick=\"ChangeColour(audio_button_11bTsimane0778364155); window.which_clicked = UpdateClicked(this.id,window.which_clicked);window.which_clicked = EnableButtons(window.which_clicked); PlaySound(clip_11bTsimane0778364155);\" class=\"jspsych-btn\" style=\"background-color: white; height:50px;width:100px\">Clip 1</button><audio src=\"audio/selected_audio_files/0778277690.wav\" id = \"clip_11bTsimane0778277690\"></audio><button id=\"audio_button_11bTsimane0778277690\" onclick=\"ChangeColour(audio_button_11bTsimane0778277690); window.which_clicked = UpdateClicked(this.id,window.which_clicked);window.which_clicked = EnableButtons(window.which_clicked); PlaySound(clip_11bTsimane0778277690);\" class=\"jspsych-btn\" style=\"background-color: white; height:50px;width:100px\">Clip 2</button><audio src=\"audio/selected_audio_files/0123414696.wav\" id = \"clip_11bTsimane0123414696\"></audio><button id=\"audio_button_11bTsimane0123414696\" onclick=\"ChangeColour(audio_button_11bTsimane0123414696); window.which_clicked = UpdateClicked(this.id,window.which_clicked);window.which_clicked = EnableButtons(window.which_clicked); PlaySound(clip_11bTsimane0123414696);\" class=\"jspsych-btn\" style=\"background-color: white; height:50px;width:100px\">Clip 3</button><audio src=\"audio/selected_audio_files/0278210215.wav\" id = \"clip_11bTsimane0278210215\"></audio><button id=\"audio_button_11bTsimane0278210215\" onclick=\"ChangeColour(audio_button_11bTsimane0278210215); window.which_clicked = UpdateClicked(this.id,window.which_clicked);window.which_clicked = EnableButtons(window.which_clicked); PlaySound(clip_11bTsimane0278210215);\" class=\"jspsych-btn\" style=\"background-color: white; height:50px;width:100px\">Clip 4</button><audio src=\"audio/selected_audio_files/0681560033.wav\" id = \"clip_11bTsimane0681560033\"></audio><button id=\"audio_button_11bTsimane0681560033\" onclick=\"ChangeColour(audio_button_11bTsimane0681560033); window.which_clicked = UpdateClicked(this.id,window.which_clicked);window.which_clicked = EnableButtons(window.which_clicked); PlaySound(clip_11bTsimane0681560033);\" class=\"jspsych-btn\" style=\"background-color: white; height:50px;width:100px\">Clip 5</button><audio src=\"audio/selected_audio_files/0368085798.wav\" id = \"clip_11bTsimane0368085798\"></audio><button id=\"audio_button_11bTsimane0368085798\" onclick=\"ChangeColour(audio_button_11bTsimane0368085798); window.which_clicked = UpdateClicked(this.id,window.which_clicked);window.which_clicked = EnableButtons(window.which_clicked); PlaySound(clip_11bTsimane0368085798);\" class=\"jspsych-btn\" style=\"background-color: white; height:50px;width:100px\">Clip 6</button><audio src=\"audio/selected_audio_files/0786335650.wav\" id = \"clip_11bTsimane0786335650\"></audio><button id=\"audio_button_11bTsimane0786335650\" onclick=\"ChangeColour(audio_button_11bTsimane0786335650); window.which_clicked = UpdateClicked(this.id,window.which_clicked);window.which_clicked = EnableButtons(window.which_clicked); PlaySound(clip_11bTsimane0786335650);\" class=\"jspsych-btn\" style=\"background-color: white; height:50px;width:100px\">Clip 7</button><audio src=\"audio/selected_audio_files/0149206079.wav\" id = \"clip_11bTsimane0149206079\"></audio><button id=\"audio_button_11bTsimane0149206079\" onclick=\"ChangeColour(audio_button_11bTsimane0149206079); window.which_clicked = UpdateClicked(this.id,window.which_clicked);window.which_clicked = EnableButtons(window.which_clicked); PlaySound(clip_11bTsimane0149206079);\" class=\"jspsych-btn\" style=\"background-color: white; height:50px;width:100px\">Clip 8</button><audio src=\"audio/selected_audio_files/0738367782.wav\" id = \"clip_11bTsimane0738367782\"></audio><button id=\"audio_button_11bTsimane0738367782\" onclick=\"ChangeColour(audio_button_11bTsimane0738367782); window.which_clicked = UpdateClicked(this.id,window.which_clicked);window.which_clicked = EnableButtons(window.which_clicked); PlaySound(clip_11bTsimane0738367782);\" class=\"jspsych-btn\" style=\"background-color: white; height:50px;width:100px\">Clip 9</button><audio src=\"audio/selected_audio_files/0397616096.wav\" id = \"clip_11bTsimane0397616096\"></audio><button id=\"audio_button_11bTsimane0397616096\" onclick=\"ChangeColour(audio_button_11bTsimane0397616096); window.which_clicked = UpdateClicked(this.id,window.which_clicked);window.which_clicked = EnableButtons(window.which_clicked); PlaySound(clip_11bTsimane0397616096);\" class=\"jspsych-btn\" style=\"background-color: white; height:50px;width:100px\">Clip 10</button>","subject":"1xwsadhldt6wxwm","time_elapsed":151795,"trial_index":12,"trial_type":"html-button-response","unique_id":"11bTsimane"},{"age_group":"8-18","button_pressed":"0","correct":1,"fullscreen":true,"gender":"M","internal_node_id":"0.0-5.0-0.0-0.4","language":"Non-English","phase":"Sex","rt":11796.99999999997,"stimulus":"<audio src=\"audio/selected_audio_files/0861904787.wav\" id = \"clip_41Tsimane0861904787\"></audio><button id=\"audio_button_41Tsimane0861904787\" onclick=\"ChangeColour(audio_button_41Tsimane0861904787); window.which_clicked = UpdateClicked(this.id,window.which_clicked);window.which_clicked = EnableButtons(window.which_clicked); PlaySound(clip_41Tsimane0861904787);\" class=\"jspsych-btn\" style=\"background-color: white; height:50px;width:100px\">Clip 1</button><audio src=\"audio/selected_audio_files/0351119080.wav\" id = \"clip_41Tsimane0351119080\"></audio><button id=\"audio_button_41Tsimane0351119080\" onclick=\"ChangeColour(audio_button_41Tsimane0351119080); window.which_clicked = UpdateClicked(this.id,window.which_clicked);window.which_clicked = EnableButtons(window.which_clicked); PlaySound(clip_41Tsimane0351119080);\" class=\"jspsych-btn\" style=\"background-color: white; height:50px;width:100px\">Clip 2</button><audio src=\"audio/selected_audio_files/0562666634.wav\" id = \"clip_41Tsimane0562666634\"></audio><button id=\"audio_button_41Tsimane0562666634\" onclick=\"ChangeColour(audio_button_41Tsimane0562666634); window.which_clicked = UpdateClicked(this.id,window.which_clicked);window.which_clicked = EnableButtons(window.which_clicked); PlaySound(clip_41Tsimane0562666634);\" class=\"jspsych-btn\" style=\"background-color: white; height:50px;width:100px\">Clip 3</button><audio src=\"audio/selected_audio_files/0165620719.wav\" id = \"clip_41Tsimane0165620719\"></audio><button id=\"audio_button_41Tsimane0165620719\" onclick=\"ChangeColour(audio_button_41Tsimane0165620719); window.which_clicked = UpdateClicked(this.id,window.which_clicked);window.which_clicked = EnableButtons(window.which_clicked); PlaySound(clip_41Tsimane0165620719);\" class=\"jspsych-btn\" style=\"background-color: white; height:50px;width:100px\">Clip 4</button><audio src=\"audio/selected_audio_files/0202719195.wav\" id = \"clip_41Tsimane0202719195\"></audio><button id=\"audio_button_41Tsimane0202719195\" onclick=\"ChangeColour(audio_button_41Tsimane0202719195); window.which_clicked = UpdateClicked(this.id,window.which_clicked);window.which_clicked = EnableButtons(window.which_clicked); PlaySound(clip_41Tsimane0202719195);\" class=\"jspsych-btn\" style=\"background-color: white; height:50px;width:100px\">Clip 5</button><audio src=\"audio/selected_audio_files/0825013164.wav\" id = \"clip_41Tsimane0825013164\"></audio><button id=\"audio_button_41Tsimane0825013164\" onclick=\"ChangeColour(audio_button_41Tsimane0825013164); window.which_clicked = UpdateClicked(this.id,window.which_clicked);window.which_clicked = EnableButtons(window.which_clicked); PlaySound(clip_41Tsimane0825013164);\" class=\"jspsych-btn\" style=\"background-color: white; height:50px;width:100px\">Clip 6</button><audio src=\"audio/selected_audio_files/0602970564.wav\" id = \"clip_41Tsimane0602970564\"></audio><button id=\"audio_button_41Tsimane0602970564\" onclick=\"ChangeColour(audio_button_41Tsimane0602970564); window.which_clicked = UpdateClicked(this.id,window.which_clicked);window.which_clicked = EnableButtons(window.which_clicked); PlaySound(clip_41Tsimane0602970564);\" class=\"jspsych-btn\" style=\"background-color: white; height:50px;width:100px\">Clip 7</button><audio src=\"audio/selected_audio_files/0575386928.wav\" id = \"clip_41Tsimane0575386928\"></audio><button id=\"audio_button_41Tsimane0575386928\" onclick=\"ChangeColour(audio_button_41Tsimane0575386928); window.which_clicked = UpdateClicked(this.id,window.which_clicked);window.which_clicked = EnableButtons(window.which_clicked); PlaySound(clip_41Tsimane0575386928);\" class=\"jspsych-btn\" style=\"background-color: white; height:50px;width:100px\">Clip 8</button><audio src=\"audio/selected_audio_files/0413379689.wav\" id = \"clip_41Tsimane0413379689\"></audio><button id=\"audio_button_41Tsimane0413379689\" onclick=\"ChangeColour(audio_button_41Tsimane0413379689); window.which_clicked = UpdateClicked(this.id,window.which_clicked);window.which_clicked = EnableButtons(window.which_clicked); PlaySound(clip_41Tsimane0413379689);\" class=\"jspsych-btn\" style=\"background-color: white; height:50px;width:100px\">Clip 9</button><audio src=\"audio/selected_audio_files/0831834074.wav\" id = \"clip_41Tsimane0831834074\"></audio><button id=\"audio_button_41Tsimane0831834074\" onclick=\"ChangeColour(audio_button_41Tsimane0831834074); window.which_clicked = UpdateClicked(this.id,window.which_clicked);window.which_clicked = EnableButtons(window.which_clicked); PlaySound(clip_41Tsimane0831834074);\" class=\"jspsych-btn\" style=\"background-color: white; height:50px;width:100px\">Clip 10</button>","subject":"1xwsadhldt6wxwm","time_elapsed":163606,"trial_index":13,"trial_type":"html-button-response","unique_id":"41Tsimane"},{"age_group":"8-18","button_pressed":"0","correct":0,"fullscreen":true,"gender":"F","internal_node_id":"0.0-5.0-0.0-0.5","language":"Non-English","phase":"Sex","rt":11352.99999999997,"stimulus":"<audio src=\"audio/selected_audio_files/0217281328.wav\" id = \"clip_F34CasillasYeli0217281328\"></audio><button id=\"audio_button_F34CasillasYeli0217281328\" onclick=\"ChangeColour(audio_button_F34CasillasYeli0217281328); window.which_clicked = UpdateClicked(this.id,window.which_clicked);window.which_clicked = EnableButtons(window.which_clicked); PlaySound(clip_F34CasillasYeli0217281328);\" class=\"jspsych-btn\" style=\"background-color: white; height:50px;width:100px\">Clip 1</button><audio src=\"audio/selected_audio_files/0603535519.wav\" id = \"clip_F34CasillasYeli0603535519\"></audio><button id=\"audio_button_F34CasillasYeli0603535519\" onclick=\"ChangeColour(audio_button_F34CasillasYeli0603535519); window.which_clicked = UpdateClicked(this.id,window.which_clicked);window.which_clicked = EnableButtons(window.which_clicked); PlaySound(clip_F34CasillasYeli0603535519);\" class=\"jspsych-btn\" style=\"background-color: white; height:50px;width:100px\">Clip 2</button><audio src=\"audio/selected_audio_files/0675497776.wav\" id = \"clip_F34CasillasYeli0675497776\"></audio><button id=\"audio_button_F34CasillasYeli0675497776\" onclick=\"ChangeColour(audio_button_F34CasillasYeli0675497776); window.which_clicked = UpdateClicked(this.id,window.which_clicked);window.which_clicked = EnableButtons(window.which_clicked); PlaySound(clip_F34CasillasYeli0675497776);\" class=\"jspsych-btn\" style=\"background-color: white; height:50px;width:100px\">Clip 3</button><audio src=\"audio/selected_audio_files/0808347251.wav\" id = \"clip_F34CasillasYeli0808347251\"></audio><button id=\"audio_button_F34CasillasYeli0808347251\" onclick=\"ChangeColour(audio_button_F34CasillasYeli0808347251); window.which_clicked = UpdateClicked(this.id,window.which_clicked);window.which_clicked = EnableButtons(window.which_clicked); PlaySound(clip_F34CasillasYeli0808347251);\" class=\"jspsych-btn\" style=\"background-color: white; height:50px;width:100px\">Clip 4</button><audio src=\"audio/selected_audio_files/0438173451.wav\" id = \"clip_F34CasillasYeli0438173451\"></audio><button id=\"audio_button_F34CasillasYeli0438173451\" onclick=\"ChangeColour(audio_button_F34CasillasYeli0438173451); window.which_clicked = UpdateClicked(this.id,window.which_clicked);window.which_clicked = EnableButtons(window.which_clicked); PlaySound(clip_F34CasillasYeli0438173451);\" class=\"jspsych-btn\" style=\"background-color: white; height:50px;width:100px\">Clip 5</button><audio src=\"audio/selected_audio_files/0452940902.wav\" id = \"clip_F34CasillasYeli0452940902\"></audio><button id=\"audio_button_F34CasillasYeli0452940902\" onclick=\"ChangeColour(audio_button_F34CasillasYeli0452940902); window.which_clicked = UpdateClicked(this.id,window.which_clicked);window.which_clicked = EnableButtons(window.which_clicked); PlaySound(clip_F34CasillasYeli0452940902);\" class=\"jspsych-btn\" style=\"background-color: white; height:50px;width:100px\">Clip 6</button><audio src=\"audio/selected_audio_files/0372311395.wav\" id = \"clip_F34CasillasYeli0372311395\"></audio><button id=\"audio_button_F34CasillasYeli0372311395\" onclick=\"ChangeColour(audio_button_F34CasillasYeli0372311395); window.which_clicked = UpdateClicked(this.id,window.which_clicked);window.which_clicked = EnableButtons(window.which_clicked); PlaySound(clip_F34CasillasYeli0372311395);\" class=\"jspsych-btn\" style=\"background-color: white; height:50px;width:100px\">Clip 7</button><audio src=\"audio/selected_audio_files/0226897449.wav\" id = \"clip_F34CasillasYeli0226897449\"></audio><button id=\"audio_button_F34CasillasYeli0226897449\" onclick=\"ChangeColour(audio_button_F34CasillasYeli0226897449); window.which_clicked = UpdateClicked(this.id,window.which_clicked);window.which_clicked = EnableButtons(window.which_clicked); PlaySound(clip_F34CasillasYeli0226897449);\" class=\"jspsych-btn\" style=\"background-color: white; height:50px;width:100px\">Clip 8</button><audio src=\"audio/selected_audio_files/0860073800.wav\" id = \"clip_F34CasillasYeli0860073800\"></audio><button id=\"audio_button_F34CasillasYeli0860073800\" onclick=\"ChangeColour(audio_button_F34CasillasYeli0860073800); window.which_clicked = UpdateClicked(this.id,window.which_clicked);window.which_clicked = EnableButtons(window.which_clicked); PlaySound(clip_F34CasillasYeli0860073800);\" class=\"jspsych-btn\" style=\"background-color: white; height:50px;width:100px\">Clip 9</button><audio src=\"audio/selected_audio_files/0654294677.wav\" id = \"clip_F34CasillasYeli0654294677\"></audio><button id=\"audio_button_F34CasillasYeli0654294677\" onclick=\"ChangeColour(audio_button_F34CasillasYeli0654294677); window.which_clicked = UpdateClicked(this.id,window.which_clicked);window.which_clicked = EnableButtons(window.which_clicked); PlaySound(clip_F34CasillasYeli0654294677);\" class=\"jspsych-btn\" style=\"background-color: white; height:50px;width:100px\">Clip 10</button>","subject":"1xwsadhldt6wxwm","time_elapsed":174973,"trial_index":14,"trial_type":"html-button-response","unique_id":"F34CasillasYeli"},{"age_group":"8-18","button_pressed":"1","correct":1,"fullscreen":true,"gender":"F","internal_node_id":"0.0-5.0-0.0-0.6","language":"Non-English","phase":"Sex","rt":9425,"stimulus":"<audio src=\"audio/selected_audio_files/0464869510.wav\" id = \"clip_F23CasillasYeli0464869510\"></audio><button id=\"audio_button_F23CasillasYeli0464869510\" onclick=\"ChangeColour(audio_button_F23CasillasYeli0464869510); window.which_clicked = UpdateClicked(this.id,window.which_clicked);window.which_clicked = EnableButtons(window.which_clicked); PlaySound(clip_F23CasillasYeli0464869510);\" class=\"jspsych-btn\" style=\"background-color: white; height:50px;width:100px\">Clip 1</button><audio src=\"audio/selected_audio_files/0374048591.wav\" id = \"clip_F23CasillasYeli0374048591\"></audio><button id=\"audio_button_F23CasillasYeli0374048591\" onclick=\"ChangeColour(audio_button_F23CasillasYeli0374048591); window.which_clicked = UpdateClicked(this.id,window.which_clicked);window.which_clicked = EnableButtons(window.which_clicked); PlaySound(clip_F23CasillasYeli0374048591);\" class=\"jspsych-btn\" style=\"background-color: white; height:50px;width:100px\">Clip 2</button><audio src=\"audio/selected_audio_files/0612074990.wav\" id = \"clip_F23CasillasYeli0612074990\"></audio><button id=\"audio_button_F23CasillasYeli0612074990\" onclick=\"ChangeColour(audio_button_F23CasillasYeli0612074990); window.which_clicked = UpdateClicked(this.id,window.which_clicked);window.which_clicked = EnableButtons(window.which_clicked); PlaySound(clip_F23CasillasYeli0612074990);\" class=\"jspsych-btn\" style=\"background-color: white; height:50px;width:100px\">Clip 3</button><audio src=\"audio/selected_audio_files/0718795329.wav\" id = \"clip_F23CasillasYeli0718795329\"></audio><button id=\"audio_button_F23CasillasYeli0718795329\" onclick=\"ChangeColour(audio_button_F23CasillasYeli0718795329); window.which_clicked = UpdateClicked(this.id,window.which_clicked);window.which_clicked = EnableButtons(window.which_clicked); PlaySound(clip_F23CasillasYeli0718795329);\" class=\"jspsych-btn\" style=\"background-color: white; height:50px;width:100px\">Clip 4</button><audio src=\"audio/selected_audio_files/0138132363.wav\" id = \"clip_F23CasillasYeli0138132363\"></audio><button id=\"audio_button_F23CasillasYeli0138132363\" onclick=\"ChangeColour(audio_button_F23CasillasYeli0138132363); window.which_clicked = UpdateClicked(this.id,window.which_clicked);window.which_clicked = EnableButtons(window.which_clicked); PlaySound(clip_F23CasillasYeli0138132363);\" class=\"jspsych-btn\" style=\"background-color: white; height:50px;width:100px\">Clip 5</button><audio src=\"audio/selected_audio_files/0504949214.wav\" id = \"clip_F23CasillasYeli0504949214\"></audio><button id=\"audio_button_F23CasillasYeli0504949214\" onclick=\"ChangeColour(audio_button_F23CasillasYeli0504949214); window.which_clicked = UpdateClicked(this.id,window.which_clicked);window.which_clicked = EnableButtons(window.which_clicked); PlaySound(clip_F23CasillasYeli0504949214);\" class=\"jspsych-btn\" style=\"background-color: white; height:50px;width:100px\">Clip 6</button><audio src=\"audio/selected_audio_files/0617036336.wav\" id = \"clip_F23CasillasYeli0617036336\"></audio><button id=\"audio_button_F23CasillasYeli0617036336\" onclick=\"ChangeColour(audio_button_F23CasillasYeli0617036336); window.which_clicked = UpdateClicked(this.id,window.which_clicked);window.which_clicked = EnableButtons(window.which_clicked); PlaySound(clip_F23CasillasYeli0617036336);\" class=\"jspsych-btn\" style=\"background-color: white; height:50px;width:100px\">Clip 7</button><audio src=\"audio/selected_audio_files/0953221533.wav\" id = \"clip_F23CasillasYeli0953221533\"></audio><button id=\"audio_button_F23CasillasYeli0953221533\" onclick=\"ChangeColour(audio_button_F23CasillasYeli0953221533); window.which_clicked = UpdateClicked(this.id,window.which_clicked);window.which_clicked = EnableButtons(window.which_clicked); PlaySound(clip_F23CasillasYeli0953221533);\" class=\"jspsych-btn\" style=\"background-color: white; height:50px;width:100px\">Clip 8</button><audio src=\"audio/selected_audio_files/0612196496.wav\" id = \"clip_F23CasillasYeli0612196496\"></audio><button id=\"audio_button_F23CasillasYeli0612196496\" onclick=\"ChangeColour(audio_button_F23CasillasYeli0612196496); window.which_clicked = UpdateClicked(this.id,window.which_clicked);window.which_clicked = EnableButtons(window.which_clicked); PlaySound(clip_F23CasillasYeli0612196496);\" class=\"jspsych-btn\" style=\"background-color: white; height:50px;width:100px\">Clip 9</button><audio src=\"audio/selected_audio_files/0124677204.wav\" id = \"clip_F23CasillasYeli0124677204\"></audio><button id=\"audio_button_F23CasillasYeli0124677204\" onclick=\"ChangeColour(audio_button_F23CasillasYeli0124677204); window.which_clicked = UpdateClicked(this.id,window.which_clicked);window.which_clicked = EnableButtons(window.which_clicked); PlaySound(clip_F23CasillasYeli0124677204);\" class=\"jspsych-btn\" style=\"background-color: white; height:50px;width:100px\">Clip 10</button>","subject":"1xwsadhldt6wxwm","time_elapsed":184412,"trial_index":15,"trial_type":"html-button-response","unique_id":"F23CasillasYeli"},{"age_group":"8-18","button_pressed":"1","correct":1,"fullscreen":true,"gender":"F","internal_node_id":"0.0-5.0-0.0-0.7","language":"Non-English","phase":"Sex","rt":10261,"stimulus":"<audio src=\"audio/selected_audio_files/0697755795.wav\" id = \"clip_33Tsimane0697755795\"></audio><button id=\"audio_button_33Tsimane0697755795\" onclick=\"ChangeColour(audio_button_33Tsimane0697755795); window.which_clicked = UpdateClicked(this.id,window.which_clicked);window.which_clicked = EnableButtons(window.which_clicked); PlaySound(clip_33Tsimane0697755795);\" class=\"jspsych-btn\" style=\"background-color: white; height:50px;width:100px\">Clip 1</button><audio src=\"audio/selected_audio_files/0467536370.wav\" id = \"clip_33Tsimane0467536370\"></audio><button id=\"audio_button_33Tsimane0467536370\" onclick=\"ChangeColour(audio_button_33Tsimane0467536370); window.which_clicked = UpdateClicked(this.id,window.which_clicked);window.which_clicked = EnableButtons(window.which_clicked); PlaySound(clip_33Tsimane0467536370);\" class=\"jspsych-btn\" style=\"background-color: white; height:50px;width:100px\">Clip 2</button><audio src=\"audio/selected_audio_files/0666097944.wav\" id = \"clip_33Tsimane0666097944\"></audio><button id=\"audio_button_33Tsimane0666097944\" onclick=\"ChangeColour(audio_button_33Tsimane0666097944); window.which_clicked = UpdateClicked(this.id,window.which_clicked);window.which_clicked = EnableButtons(window.which_clicked); PlaySound(clip_33Tsimane0666097944);\" class=\"jspsych-btn\" style=\"background-color: white; height:50px;width:100px\">Clip 3</button><audio src=\"audio/selected_audio_files/0523247891.wav\" id = \"clip_33Tsimane0523247891\"></audio><button id=\"audio_button_33Tsimane0523247891\" onclick=\"ChangeColour(audio_button_33Tsimane0523247891); window.which_clicked = UpdateClicked(this.id,window.which_clicked);window.which_clicked = EnableButtons(window.which_clicked); PlaySound(clip_33Tsimane0523247891);\" class=\"jspsych-btn\" style=\"background-color: white; height:50px;width:100px\">Clip 4</button><audio src=\"audio/selected_audio_files/0236112949.wav\" id = \"clip_33Tsimane0236112949\"></audio><button id=\"audio_button_33Tsimane0236112949\" onclick=\"ChangeColour(audio_button_33Tsimane0236112949); window.which_clicked = UpdateClicked(this.id,window.which_clicked);window.which_clicked = EnableButtons(window.which_clicked); PlaySound(clip_33Tsimane0236112949);\" class=\"jspsych-btn\" style=\"background-color: white; height:50px;width:100px\">Clip 5</button><audio src=\"audio/selected_audio_files/0439394895.wav\" id = \"clip_33Tsimane0439394895\"></audio><button id=\"audio_button_33Tsimane0439394895\" onclick=\"ChangeColour(audio_button_33Tsimane0439394895); window.which_clicked = UpdateClicked(this.id,window.which_clicked);window.which_clicked = EnableButtons(window.which_clicked); PlaySound(clip_33Tsimane0439394895);\" class=\"jspsych-btn\" style=\"background-color: white; height:50px;width:100px\">Clip 6</button><audio src=\"audio/selected_audio_files/0904709674.wav\" id = \"clip_33Tsimane0904709674\"></audio><button id=\"audio_button_33Tsimane0904709674\" onclick=\"ChangeColour(audio_button_33Tsimane0904709674); window.which_clicked = UpdateClicked(this.id,window.which_clicked);window.which_clicked = EnableButtons(window.which_clicked); PlaySound(clip_33Tsimane0904709674);\" class=\"jspsych-btn\" style=\"background-color: white; height:50px;width:100px\">Clip 7</button><audio src=\"audio/selected_audio_files/0414299208.wav\" id = \"clip_33Tsimane0414299208\"></audio><button id=\"audio_button_33Tsimane0414299208\" onclick=\"ChangeColour(audio_button_33Tsimane0414299208); window.which_clicked = UpdateClicked(this.id,window.which_clicked);window.which_clicked = EnableButtons(window.which_clicked); PlaySound(clip_33Tsimane0414299208);\" class=\"jspsych-btn\" style=\"background-color: white; height:50px;width:100px\">Clip 8</button><audio src=\"audio/selected_audio_files/0431162344.wav\" id = \"clip_33Tsimane0431162344\"></audio><button id=\"audio_button_33Tsimane0431162344\" onclick=\"ChangeColour(audio_button_33Tsimane0431162344); window.which_clicked = UpdateClicked(this.id,window.which_clicked);window.which_clicked = EnableButtons(window.which_clicked); PlaySound(clip_33Tsimane0431162344);\" class=\"jspsych-btn\" style=\"background-color: white; height:50px;width:100px\">Clip 9</button><audio src=\"audio/selected_audio_files/0856176203.wav\" id = \"clip_33Tsimane0856176203\"></audio><button id=\"audio_button_33Tsimane0856176203\" onclick=\"ChangeColour(audio_button_33Tsimane0856176203); window.which_clicked = UpdateClicked(this.id,window.which_clicked);window.which_clicked = EnableButtons(window.which_clicked); PlaySound(clip_33Tsimane0856176203);\" class=\"jspsych-btn\" style=\"background-color: white; height:50px;width:100px\">Clip 10</button>","subject":"1xwsadhldt6wxwm","time_elapsed":194687,"trial_index":16,"trial_type":"html-button-response","unique_id":"33Tsimane"},{"age_group":"8-18","button_pressed":"0","correct":1,"fullscreen":true,"gender":"M","internal_node_id":"0.0-5.0-0.0-0.8","language":"Non-English","phase":"Sex","rt":9965.99999999997,"stimulus":"<audio src=\"audio/selected_audio_files/0576024436.wav\" id = \"clip_F10CasillasYeli0576024436\"></audio><button id=\"audio_button_F10CasillasYeli0576024436\" onclick=\"ChangeColour(audio_button_F10CasillasYeli0576024436); window.which_clicked = UpdateClicked(this.id,window.which_clicked);window.which_clicked = EnableButtons(window.which_clicked); PlaySound(clip_F10CasillasYeli0576024436);\" class=\"jspsych-btn\" style=\"background-color: white; height:50px;width:100px\">Clip 1</button><audio src=\"audio/selected_audio_files/0188051756.wav\" id = \"clip_F10CasillasYeli0188051756\"></audio><button id=\"audio_button_F10CasillasYeli0188051756\" onclick=\"ChangeColour(audio_button_F10CasillasYeli0188051756); window.which_clicked = UpdateClicked(this.id,window.which_clicked);window.which_clicked = EnableButtons(window.which_clicked); PlaySound(clip_F10CasillasYeli0188051756);\" class=\"jspsych-btn\" style=\"background-color: white; height:50px;width:100px\">Clip 2</button><audio src=\"audio/selected_audio_files/0879634833.wav\" id = \"clip_F10CasillasYeli0879634833\"></audio><button id=\"audio_button_F10CasillasYeli0879634833\" onclick=\"ChangeColour(audio_button_F10CasillasYeli0879634833); window.which_clicked = UpdateClicked(this.id,window.which_clicked);window.which_clicked = EnableButtons(window.which_clicked); PlaySound(clip_F10CasillasYeli0879634833);\" class=\"jspsych-btn\" style=\"background-color: white; height:50px;width:100px\">Clip 3</button><audio src=\"audio/selected_audio_files/0707897423.wav\" id = \"clip_F10CasillasYeli0707897423\"></audio><button id=\"audio_button_F10CasillasYeli0707897423\" onclick=\"ChangeColour(audio_button_F10CasillasYeli0707897423); window.which_clicked = UpdateClicked(this.id,window.which_clicked);window.which_clicked = EnableButtons(window.which_clicked); PlaySound(clip_F10CasillasYeli0707897423);\" class=\"jspsych-btn\" style=\"background-color: white; height:50px;width:100px\">Clip 4</button><audio src=\"audio/selected_audio_files/0311714999.wav\" id = \"clip_F10CasillasYeli0311714999\"></audio><button id=\"audio_button_F10CasillasYeli0311714999\" onclick=\"ChangeColour(audio_button_F10CasillasYeli0311714999); window.which_clicked = UpdateClicked(this.id,window.which_clicked);window.which_clicked = EnableButtons(window.which_clicked); PlaySound(clip_F10CasillasYeli0311714999);\" class=\"jspsych-btn\" style=\"background-color: white; height:50px;width:100px\">Clip 5</button><audio src=\"audio/selected_audio_files/0290083634.wav\" id = \"clip_F10CasillasYeli0290083634\"></audio><button id=\"audio_button_F10CasillasYeli0290083634\" onclick=\"ChangeColour(audio_button_F10CasillasYeli0290083634); window.which_clicked = UpdateClicked(this.id,window.which_clicked);window.which_clicked = EnableButtons(window.which_clicked); PlaySound(clip_F10CasillasYeli0290083634);\" class=\"jspsych-btn\" style=\"background-color: white; height:50px;width:100px\">Clip 6</button><audio src=\"audio/selected_audio_files/0873888199.wav\" id = \"clip_F10CasillasYeli0873888199\"></audio><button id=\"audio_button_F10CasillasYeli0873888199\" onclick=\"ChangeColour(audio_button_F10CasillasYeli0873888199); window.which_clicked = UpdateClicked(this.id,window.which_clicked);window.which_clicked = EnableButtons(window.which_clicked); PlaySound(clip_F10CasillasYeli0873888199);\" class=\"jspsych-btn\" style=\"background-color: white; height:50px;width:100px\">Clip 7</button><audio src=\"audio/selected_audio_files/0557732278.wav\" id = \"clip_F10CasillasYeli0557732278\"></audio><button id=\"audio_button_F10CasillasYeli0557732278\" onclick=\"ChangeColour(audio_button_F10CasillasYeli0557732278); window.which_clicked = UpdateClicked(this.id,window.which_clicked);window.which_clicked = EnableButtons(window.which_clicked); PlaySound(clip_F10CasillasYeli0557732278);\" class=\"jspsych-btn\" style=\"background-color: white; height:50px;width:100px\">Clip 8</button><audio src=\"audio/selected_audio_files/0433583422.wav\" id = \"clip_F10CasillasYeli0433583422\"></audio><button id=\"audio_button_F10CasillasYeli0433583422\" onclick=\"ChangeColour(audio_button_F10CasillasYeli0433583422); window.which_clicked = UpdateClicked(this.id,window.which_clicked);window.which_clicked = EnableButtons(window.which_clicked); PlaySound(clip_F10CasillasYeli0433583422);\" class=\"jspsych-btn\" style=\"background-color: white; height:50px;width:100px\">Clip 9</button><audio src=\"audio/selected_audio_files/0285660679.wav\" id = \"clip_F10CasillasYeli0285660679\"></audio><button id=\"audio_button_F10CasillasYeli0285660679\" onclick=\"ChangeColour(audio_button_F10CasillasYeli0285660679); window.which_clicked = UpdateClicked(this.id,window.which_clicked);window.which_clicked = EnableButtons(window.which_clicked); PlaySound(clip_F10CasillasYeli0285660679);\" class=\"jspsych-btn\" style=\"background-color: white; height:50px;width:100px\">Clip 10</button>","subject":"1xwsadhldt6wxwm","time_elapsed":204669,"trial_index":17,"trial_type":"html-button-response","unique_id":"F10CasillasYeli"},{"age_group":"8-18","button_pressed":"0","correct":1,"fullscreen":true,"gender":"M","internal_node_id":"0.0-5.0-0.0-0.9","language":"Non-English","phase":"Sex","rt":9730,"stimulus":"<audio src=\"audio/selected_audio_files/0420882526.wav\" id = \"clip_F42CasillasYeli0420882526\"></audio><button id=\"audio_button_F42CasillasYeli0420882526\" onclick=\"ChangeColour(audio_button_F42CasillasYeli0420882526); window.which_clicked = UpdateClicked(this.id,window.which_clicked);window.which_clicked = EnableButtons(window.which_clicked); PlaySound(clip_F42CasillasYeli0420882526);\" class=\"jspsych-btn\" style=\"background-color: white; height:50px;width:100px\">Clip 1</button><audio src=\"audio/selected_audio_files/0731653574.wav\" id = \"clip_F42CasillasYeli0731653574\"></audio><button id=\"audio_button_F42CasillasYeli0731653574\" onclick=\"ChangeColour(audio_button_F42CasillasYeli0731653574); window.which_clicked = UpdateClicked(this.id,window.which_clicked);window.which_clicked = EnableButtons(window.which_clicked); PlaySound(clip_F42CasillasYeli0731653574);\" class=\"jspsych-btn\" style=\"background-color: white; height:50px;width:100px\">Clip 2</button><audio src=\"audio/selected_audio_files/0189875610.wav\" id = \"clip_F42CasillasYeli0189875610\"></audio><button id=\"audio_button_F42CasillasYeli0189875610\" onclick=\"ChangeColour(audio_button_F42CasillasYeli0189875610); window.which_clicked = UpdateClicked(this.id,window.which_clicked);window.which_clicked = EnableButtons(window.which_clicked); PlaySound(clip_F42CasillasYeli0189875610);\" class=\"jspsych-btn\" style=\"background-color: white; height:50px;width:100px\">Clip 3</button><audio src=\"audio/selected_audio_files/0111156855.wav\" id = \"clip_F42CasillasYeli0111156855\"></audio><button id=\"audio_button_F42CasillasYeli0111156855\" onclick=\"ChangeColour(audio_button_F42CasillasYeli0111156855); window.which_clicked = UpdateClicked(this.id,window.which_clicked);window.which_clicked = EnableButtons(window.which_clicked); PlaySound(clip_F42CasillasYeli0111156855);\" class=\"jspsych-btn\" style=\"background-color: white; height:50px;width:100px\">Clip 4</button><audio src=\"audio/selected_audio_files/0694253290.wav\" id = \"clip_F42CasillasYeli0694253290\"></audio><button id=\"audio_button_F42CasillasYeli0694253290\" onclick=\"ChangeColour(audio_button_F42CasillasYeli0694253290); window.which_clicked = UpdateClicked(this.id,window.which_clicked);window.which_clicked = EnableButtons(window.which_clicked); PlaySound(clip_F42CasillasYeli0694253290);\" class=\"jspsych-btn\" style=\"background-color: white; height:50px;width:100px\">Clip 5</button><audio src=\"audio/selected_audio_files/0126554224.wav\" id = \"clip_F42CasillasYeli0126554224\"></audio><button id=\"audio_button_F42CasillasYeli0126554224\" onclick=\"ChangeColour(audio_button_F42CasillasYeli0126554224); window.which_clicked = UpdateClicked(this.id,window.which_clicked);window.which_clicked = EnableButtons(window.which_clicked); PlaySound(clip_F42CasillasYeli0126554224);\" class=\"jspsych-btn\" style=\"background-color: white; height:50px;width:100px\">Clip 6</button><audio src=\"audio/selected_audio_files/0101897527.wav\" id = \"clip_F42CasillasYeli0101897527\"></audio><button id=\"audio_button_F42CasillasYeli0101897527\" onclick=\"ChangeColour(audio_button_F42CasillasYeli0101897527); window.which_clicked = UpdateClicked(this.id,window.which_clicked);window.which_clicked = EnableButtons(window.which_clicked); PlaySound(clip_F42CasillasYeli0101897527);\" class=\"jspsych-btn\" style=\"background-color: white; height:50px;width:100px\">Clip 7</button><audio src=\"audio/selected_audio_files/0246749731.wav\" id = \"clip_F42CasillasYeli0246749731\"></audio><button id=\"audio_button_F42CasillasYeli0246749731\" onclick=\"ChangeColour(audio_button_F42CasillasYeli0246749731); window.which_clicked = UpdateClicked(this.id,window.which_clicked);window.which_clicked = EnableButtons(window.which_clicked); PlaySound(clip_F42CasillasYeli0246749731);\" class=\"jspsych-btn\" style=\"background-color: white; height:50px;width:100px\">Clip 8</button><audio src=\"audio/selected_audio_files/0239275764.wav\" id = \"clip_F42CasillasYeli0239275764\"></audio><button id=\"audio_button_F42CasillasYeli0239275764\" onclick=\"ChangeColour(audio_button_F42CasillasYeli0239275764); window.which_clicked = UpdateClicked(this.id,window.which_clicked);window.which_clicked = EnableButtons(window.which_clicked); PlaySound(clip_F42CasillasYeli0239275764);\" class=\"jspsych-btn\" style=\"background-color: white; height:50px;width:100px\">Clip 9</button><audio src=\"audio/selected_audio_files/0929909961.wav\" id = \"clip_F42CasillasYeli0929909961\"></audio><button id=\"audio_button_F42CasillasYeli0929909961\" onclick=\"ChangeColour(audio_button_F42CasillasYeli0929909961); window.which_clicked = UpdateClicked(this.id,window.which_clicked);window.which_clicked = EnableButtons(window.which_clicked); PlaySound(clip_F42CasillasYeli0929909961);\" class=\"jspsych-btn\" style=\"background-color: white; height:50px;width:100px\">Clip 10</button>","subject":"1xwsadhldt6wxwm","time_elapsed":214413,"trial_index":18,"trial_type":"html-button-response","unique_id":"F42CasillasYeli"},{"age_group":"8-18","button_pressed":"1","correct":0,"fullscreen":true,"gender":"NA","internal_node_id":"0.0-5.0-1.0-0.0","language":"English","phase":"Language","rt":17154,"stimulus":"<audio src=\"audio/selected_audio_files/0290199528.wav\" id = \"clip_8Seedlings0290199528\"></audio><button id=\"audio_button_8Seedlings0290199528\" onclick=\"ChangeColour(audio_button_8Seedlings0290199528); window.which_clicked = UpdateClicked(this.id,window.which_clicked);window.which_clicked = EnableButtons(window.which_clicked); PlaySound(clip_8Seedlings0290199528);\" class=\"jspsych-btn\" style=\"background-color: white; height:50px;width:100px\">Clip 1</button><audio src=\"audio/selected_audio_files/0539423211.wav\" id = \"clip_8Seedlings0539423211\"></audio><button id=\"audio_button_8Seedlings0539423211\" onclick=\"ChangeColour(audio_button_8Seedlings0539423211); window.which_clicked = UpdateClicked(this.id,window.which_clicked);window.which_clicked = EnableButtons(window.which_clicked); PlaySound(clip_8Seedlings0539423211);\" class=\"jspsych-btn\" style=\"background-color: white; height:50px;width:100px\">Clip 2</button><audio src=\"audio/selected_audio_files/0950135523.wav\" id = \"clip_8Seedlings0950135523\"></audio><button id=\"audio_button_8Seedlings0950135523\" onclick=\"ChangeColour(audio_button_8Seedlings0950135523); window.which_clicked = UpdateClicked(this.id,window.which_clicked);window.which_clicked = EnableButtons(window.which_clicked); PlaySound(clip_8Seedlings0950135523);\" class=\"jspsych-btn\" style=\"background-color: white; height:50px;width:100px\">Clip 3</button><audio src=\"audio/selected_audio_files/0701337812.wav\" id = \"clip_8Seedlings0701337812\"></audio><button id=\"audio_button_8Seedlings0701337812\" onclick=\"ChangeColour(audio_button_8Seedlings0701337812); window.which_clicked = UpdateClicked(this.id,window.which_clicked);window.which_clicked = EnableButtons(window.which_clicked); PlaySound(clip_8Seedlings0701337812);\" class=\"jspsych-btn\" style=\"background-color: white; height:50px;width:100px\">Clip 4</button><audio src=\"audio/selected_audio_files/0714746843.wav\" id = \"clip_8Seedlings0714746843\"></audio><button id=\"audio_button_8Seedlings0714746843\" onclick=\"ChangeColour(audio_button_8Seedlings0714746843); window.which_clicked = UpdateClicked(this.id,window.which_clicked);window.which_clicked = EnableButtons(window.which_clicked); PlaySound(clip_8Seedlings0714746843);\" class=\"jspsych-btn\" style=\"background-color: white; height:50px;width:100px\">Clip 5</button><audio src=\"audio/selected_audio_files/0275246969.wav\" id = \"clip_8Seedlings0275246969\"></audio><button id=\"audio_button_8Seedlings0275246969\" onclick=\"ChangeColour(audio_button_8Seedlings0275246969); window.which_clicked = UpdateClicked(this.id,window.which_clicked);window.which_clicked = EnableButtons(window.which_clicked); PlaySound(clip_8Seedlings0275246969);\" class=\"jspsych-btn\" style=\"background-color: white; height:50px;width:100px\">Clip 6</button><audio src=\"audio/selected_audio_files/0993645711.wav\" id = \"clip_8Seedlings0993645711\"></audio><button id=\"audio_button_8Seedlings0993645711\" onclick=\"ChangeColour(audio_button_8Seedlings0993645711); window.which_clicked = UpdateClicked(this.id,window.which_clicked);window.which_clicked = EnableButtons(window.which_clicked); PlaySound(clip_8Seedlings0993645711);\" class=\"jspsych-btn\" style=\"background-color: white; height:50px;width:100px\">Clip 7</button><audio src=\"audio/selected_audio_files/0468369573.wav\" id = \"clip_8Seedlings0468369573\"></audio><button id=\"audio_button_8Seedlings0468369573\" onclick=\"ChangeColour(audio_button_8Seedlings0468369573); window.which_clicked = UpdateClicked(this.id,window.which_clicked);window.which_clicked = EnableButtons(window.which_clicked); PlaySound(clip_8Seedlings0468369573);\" class=\"jspsych-btn\" style=\"background-color: white; height:50px;width:100px\">Clip 8</button><audio src=\"audio/selected_audio_files/0388200322.wav\" id = \"clip_8Seedlings0388200322\"></audio><button id=\"audio_button_8Seedlings0388200322\" onclick=\"ChangeColour(audio_button_8Seedlings0388200322); window.which_clicked = UpdateClicked(this.id,window.which_clicked);window.which_clicked = EnableButtons(window.which_clicked); PlaySound(clip_8Seedlings0388200322);\" class=\"jspsych-btn\" style=\"background-color: white; height:50px;width:100px\">Clip 9</button><audio src=\"audio/selected_audio_files/0149195355.wav\" id = \"clip_8Seedlings0149195355\"></audio><button id=\"audio_button_8Seedlings0149195355\" onclick=\"ChangeColour(audio_button_8Seedlings0149195355); window.which_clicked = UpdateClicked(this.id,window.which_clicked);window.which_clicked = EnableButtons(window.which_clicked); PlaySound(clip_8Seedlings0149195355);\" class=\"jspsych-btn\" style=\"background-color: white; height:50px;width:100px\">Clip 10</button>","subject":"1xwsadhldt6wxwm","time_elapsed":231581,"trial_index":19,"trial_type":"html-button-response","unique_id":"8Seedlings"},{"age_group":"19-36","button_pressed":"1","correct":0,"fullscreen":true,"gender":"M","internal_node_id":"0.0-5.0-1.0-0.1","language":"English","phase":"Language","rt":9751,"stimulus":"<audio src=\"audio/selected_audio_files/0411807089.wav\" id = \"clip_9Seedlings0411807089\"></audio><button id=\"audio_button_9Seedlings0411807089\" onclick=\"ChangeColour(audio_button_9Seedlings0411807089); window.which_clicked = UpdateClicked(this.id,window.which_clicked);window.which_clicked = EnableButtons(window.which_clicked); PlaySound(clip_9Seedlings0411807089);\" class=\"jspsych-btn\" style=\"background-color: white; height:50px;width:100px\">Clip 1</button><audio src=\"audio/selected_audio_files/0862671725.wav\" id = \"clip_9Seedlings0862671725\"></audio><button id=\"audio_button_9Seedlings0862671725\" onclick=\"ChangeColour(audio_button_9Seedlings0862671725); window.which_clicked = UpdateClicked(this.id,window.which_clicked);window.which_clicked = EnableButtons(window.which_clicked); PlaySound(clip_9Seedlings0862671725);\" class=\"jspsych-btn\" style=\"background-color: white; height:50px;width:100px\">Clip 2</button><audio src=\"audio/selected_audio_files/0717741284.wav\" id = \"clip_9Seedlings0717741284\"></audio><button id=\"audio_button_9Seedlings0717741284\" onclick=\"ChangeColour(audio_button_9Seedlings0717741284); window.which_clicked = UpdateClicked(this.id,window.which_clicked);window.which_clicked = EnableButtons(window.which_clicked); PlaySound(clip_9Seedlings0717741284);\" class=\"jspsych-btn\" style=\"background-color: white; height:50px;width:100px\">Clip 3</button><audio src=\"audio/selected_audio_files/0672457006.wav\" id = \"clip_9Seedlings0672457006\"></audio><button id=\"audio_button_9Seedlings0672457006\" onclick=\"ChangeColour(audio_button_9Seedlings0672457006); window.which_clicked = UpdateClicked(this.id,window.which_clicked);window.which_clicked = EnableButtons(window.which_clicked); PlaySound(clip_9Seedlings0672457006);\" class=\"jspsych-btn\" style=\"background-color: white; height:50px;width:100px\">Clip 4</button><audio src=\"audio/selected_audio_files/0797835532.wav\" id = \"clip_9Seedlings0797835532\"></audio><button id=\"audio_button_9Seedlings0797835532\" onclick=\"ChangeColour(audio_button_9Seedlings0797835532); window.which_clicked = UpdateClicked(this.id,window.which_clicked);window.which_clicked = EnableButtons(window.which_clicked); PlaySound(clip_9Seedlings0797835532);\" class=\"jspsych-btn\" style=\"background-color: white; height:50px;width:100px\">Clip 5</button><audio src=\"audio/selected_audio_files/0823461431.wav\" id = \"clip_9Seedlings0823461431\"></audio><button id=\"audio_button_9Seedlings0823461431\" onclick=\"ChangeColour(audio_button_9Seedlings0823461431); window.which_clicked = UpdateClicked(this.id,window.which_clicked);window.which_clicked = EnableButtons(window.which_clicked); PlaySound(clip_9Seedlings0823461431);\" class=\"jspsych-btn\" style=\"background-color: white; height:50px;width:100px\">Clip 6</button><audio src=\"audio/selected_audio_files/0454599910.wav\" id = \"clip_9Seedlings0454599910\"></audio><button id=\"audio_button_9Seedlings0454599910\" onclick=\"ChangeColour(audio_button_9Seedlings0454599910); window.which_clicked = UpdateClicked(this.id,window.which_clicked);window.which_clicked = EnableButtons(window.which_clicked); PlaySound(clip_9Seedlings0454599910);\" class=\"jspsych-btn\" style=\"background-color: white; height:50px;width:100px\">Clip 7</button><audio src=\"audio/selected_audio_files/0915390782.wav\" id = \"clip_9Seedlings0915390782\"></audio><button id=\"audio_button_9Seedlings0915390782\" onclick=\"ChangeColour(audio_button_9Seedlings0915390782); window.which_clicked = UpdateClicked(this.id,window.which_clicked);window.which_clicked = EnableButtons(window.which_clicked); PlaySound(clip_9Seedlings0915390782);\" class=\"jspsych-btn\" style=\"background-color: white; height:50px;width:100px\">Clip 8</button><audio src=\"audio/selected_audio_files/0348289867.wav\" id = \"clip_9Seedlings0348289867\"></audio><button id=\"audio_button_9Seedlings0348289867\" onclick=\"ChangeColour(audio_button_9Seedlings0348289867); window.which_clicked = UpdateClicked(this.id,window.which_clicked);window.which_clicked = EnableButtons(window.which_clicked); PlaySound(clip_9Seedlings0348289867);\" class=\"jspsych-btn\" style=\"background-color: white; height:50px;width:100px\">Clip 9</button><audio src=\"audio/selected_audio_files/0649898179.wav\" id = \"clip_9Seedlings0649898179\"></audio><button id=\"audio_button_9Seedlings0649898179\" onclick=\"ChangeColour(audio_button_9Seedlings0649898179); window.which_clicked = UpdateClicked(this.id,window.which_clicked);window.which_clicked = EnableButtons(window.which_clicked); PlaySound(clip_9Seedlings0649898179);\" class=\"jspsych-btn\" style=\"background-color: white; height:50px;width:100px\">Clip 10</button>","subject":"1xwsadhldt6wxwm","time_elapsed":241346,"trial_index":20,"trial_type":"html-button-response","unique_id":"9Seedlings"},{"age_group":"19-36","button_pressed":"1","correct":1,"fullscreen":true,"gender":"F","internal_node_id":"0.0-5.0-1.0-0.2","language":"Non-English","phase":"Language","rt":13711,"stimulus":"<audio src=\"audio/selected_audio_files/0763191474.wav\" id = \"clip_F31CasillasYeli0763191474\"></audio><button id=\"audio_button_F31CasillasYeli0763191474\" onclick=\"ChangeColour(audio_button_F31CasillasYeli0763191474); window.which_clicked = UpdateClicked(this.id,window.which_clicked);window.which_clicked = EnableButtons(window.which_clicked); PlaySound(clip_F31CasillasYeli0763191474);\" class=\"jspsych-btn\" style=\"background-color: white; height:50px;width:100px\">Clip 1</button><audio src=\"audio/selected_audio_files/0678448275.wav\" id = \"clip_F31CasillasYeli0678448275\"></audio><button id=\"audio_button_F31CasillasYeli0678448275\" onclick=\"ChangeColour(audio_button_F31CasillasYeli0678448275); window.which_clicked = UpdateClicked(this.id,window.which_clicked);window.which_clicked = EnableButtons(window.which_clicked); PlaySound(clip_F31CasillasYeli0678448275);\" class=\"jspsych-btn\" style=\"background-color: white; height:50px;width:100px\">Clip 2</button><audio src=\"audio/selected_audio_files/0117316771.wav\" id = \"clip_F31CasillasYeli0117316771\"></audio><button id=\"audio_button_F31CasillasYeli0117316771\" onclick=\"ChangeColour(audio_button_F31CasillasYeli0117316771); window.which_clicked = UpdateClicked(this.id,window.which_clicked);window.which_clicked = EnableButtons(window.which_clicked); PlaySound(clip_F31CasillasYeli0117316771);\" class=\"jspsych-btn\" style=\"background-color: white; height:50px;width:100px\">Clip 3</button><audio src=\"audio/selected_audio_files/0104587797.wav\" id = \"clip_F31CasillasYeli0104587797\"></audio><button id=\"audio_button_F31CasillasYeli0104587797\" onclick=\"ChangeColour(audio_button_F31CasillasYeli0104587797); window.which_clicked = UpdateClicked(this.id,window.which_clicked);window.which_clicked = EnableButtons(window.which_clicked); PlaySound(clip_F31CasillasYeli0104587797);\" class=\"jspsych-btn\" style=\"background-color: white; height:50px;width:100px\">Clip 4</button><audio src=\"audio/selected_audio_files/0113730963.wav\" id = \"clip_F31CasillasYeli0113730963\"></audio><button id=\"audio_button_F31CasillasYeli0113730963\" onclick=\"ChangeColour(audio_button_F31CasillasYeli0113730963); window.which_clicked = UpdateClicked(this.id,window.which_clicked);window.which_clicked = EnableButtons(window.which_clicked); PlaySound(clip_F31CasillasYeli0113730963);\" class=\"jspsych-btn\" style=\"background-color: white; height:50px;width:100px\">Clip 5</button><audio src=\"audio/selected_audio_files/0290502124.wav\" id = \"clip_F31CasillasYeli0290502124\"></audio><button id=\"audio_button_F31CasillasYeli0290502124\" onclick=\"ChangeColour(audio_button_F31CasillasYeli0290502124); window.which_clicked = UpdateClicked(this.id,window.which_clicked);window.which_clicked = EnableButtons(window.which_clicked); PlaySound(clip_F31CasillasYeli0290502124);\" class=\"jspsych-btn\" style=\"background-color: white; height:50px;width:100px\">Clip 6</button><audio src=\"audio/selected_audio_files/0621283319.wav\" id = \"clip_F31CasillasYeli0621283319\"></audio><button id=\"audio_button_F31CasillasYeli0621283319\" onclick=\"ChangeColour(audio_button_F31CasillasYeli0621283319); window.which_clicked = UpdateClicked(this.id,window.which_clicked);window.which_clicked = EnableButtons(window.which_clicked); PlaySound(clip_F31CasillasYeli0621283319);\" class=\"jspsych-btn\" style=\"background-color: white; height:50px;width:100px\">Clip 7</button><audio src=\"audio/selected_audio_files/0797409241.wav\" id = \"clip_F31CasillasYeli0797409241\"></audio><button id=\"audio_button_F31CasillasYeli0797409241\" onclick=\"ChangeColour(audio_button_F31CasillasYeli0797409241); window.which_clicked = UpdateClicked(this.id,window.which_clicked);window.which_clicked = EnableButtons(window.which_clicked); PlaySound(clip_F31CasillasYeli0797409241);\" class=\"jspsych-btn\" style=\"background-color: white; height:50px;width:100px\">Clip 8</button><audio src=\"audio/selected_audio_files/0103032756.wav\" id = \"clip_F31CasillasYeli0103032756\"></audio><button id=\"audio_button_F31CasillasYeli0103032756\" onclick=\"ChangeColour(audio_button_F31CasillasYeli0103032756); window.which_clicked = UpdateClicked(this.id,window.which_clicked);window.which_clicked = EnableButtons(window.which_clicked); PlaySound(clip_F31CasillasYeli0103032756);\" class=\"jspsych-btn\" style=\"background-color: white; height:50px;width:100px\">Clip 9</button><audio src=\"audio/selected_audio_files/0217476153.wav\" id = \"clip_F31CasillasYeli0217476153\"></audio><button id=\"audio_button_F31CasillasYeli0217476153\" onclick=\"ChangeColour(audio_button_F31CasillasYeli0217476153); window.which_clicked = UpdateClicked(this.id,window.which_clicked);window.which_clicked = EnableButtons(window.which_clicked); PlaySound(clip_F31CasillasYeli0217476153);\" class=\"jspsych-btn\" style=\"background-color: white; height:50px;width:100px\">Clip 10</button>","subject":"1xwsadhldt6wxwm","time_elapsed":255071,"trial_index":21,"trial_type":"html-button-response","unique_id":"F31CasillasYeli"},{"age_group":"8-18","button_pressed":"0","correct":1,"fullscreen":true,"gender":"NA","internal_node_id":"0.0-5.0-1.0-0.3","language":"English","phase":"Language","rt":9890.00000000003,"stimulus":"<audio src=\"audio/selected_audio_files/0400331344.wav\" id = \"clip_4Seedlings0400331344\"></audio><button id=\"audio_button_4Seedlings0400331344\" onclick=\"ChangeColour(audio_button_4Seedlings0400331344); window.which_clicked = UpdateClicked(this.id,window.which_clicked);window.which_clicked = EnableButtons(window.which_clicked); PlaySound(clip_4Seedlings0400331344);\" class=\"jspsych-btn\" style=\"background-color: white; height:50px;width:100px\">Clip 1</button><audio src=\"audio/selected_audio_files/0904895638.wav\" id = \"clip_4Seedlings0904895638\"></audio><button id=\"audio_button_4Seedlings0904895638\" onclick=\"ChangeColour(audio_button_4Seedlings0904895638); window.which_clicked = UpdateClicked(this.id,window.which_clicked);window.which_clicked = EnableButtons(window.which_clicked); PlaySound(clip_4Seedlings0904895638);\" class=\"jspsych-btn\" style=\"background-color: white; height:50px;width:100px\">Clip 2</button><audio src=\"audio/selected_audio_files/0636147640.wav\" id = \"clip_4Seedlings0636147640\"></audio><button id=\"audio_button_4Seedlings0636147640\" onclick=\"ChangeColour(audio_button_4Seedlings0636147640); window.which_clicked = UpdateClicked(this.id,window.which_clicked);window.which_clicked = EnableButtons(window.which_clicked); PlaySound(clip_4Seedlings0636147640);\" class=\"jspsych-btn\" style=\"background-color: white; height:50px;width:100px\">Clip 3</button><audio src=\"audio/selected_audio_files/0920525410.wav\" id = \"clip_4Seedlings0920525410\"></audio><button id=\"audio_button_4Seedlings0920525410\" onclick=\"ChangeColour(audio_button_4Seedlings0920525410); window.which_clicked = UpdateClicked(this.id,window.which_clicked);window.which_clicked = EnableButtons(window.which_clicked); PlaySound(clip_4Seedlings0920525410);\" class=\"jspsych-btn\" style=\"background-color: white; height:50px;width:100px\">Clip 4</button><audio src=\"audio/selected_audio_files/0574585338.wav\" id = \"clip_4Seedlings0574585338\"></audio><button id=\"audio_button_4Seedlings0574585338\" onclick=\"ChangeColour(audio_button_4Seedlings0574585338); window.which_clicked = UpdateClicked(this.id,window.which_clicked);window.which_clicked = EnableButtons(window.which_clicked); PlaySound(clip_4Seedlings0574585338);\" class=\"jspsych-btn\" style=\"background-color: white; height:50px;width:100px\">Clip 5</button><audio src=\"audio/selected_audio_files/0750301996.wav\" id = \"clip_4Seedlings0750301996\"></audio><button id=\"audio_button_4Seedlings0750301996\" onclick=\"ChangeColour(audio_button_4Seedlings0750301996); window.which_clicked = UpdateClicked(this.id,window.which_clicked);window.which_clicked = EnableButtons(window.which_clicked); PlaySound(clip_4Seedlings0750301996);\" class=\"jspsych-btn\" style=\"background-color: white; height:50px;width:100px\">Clip 6</button><audio src=\"audio/selected_audio_files/0642669082.wav\" id = \"clip_4Seedlings0642669082\"></audio><button id=\"audio_button_4Seedlings0642669082\" onclick=\"ChangeColour(audio_button_4Seedlings0642669082); window.which_clicked = UpdateClicked(this.id,window.which_clicked);window.which_clicked = EnableButtons(window.which_clicked); PlaySound(clip_4Seedlings0642669082);\" class=\"jspsych-btn\" style=\"background-color: white; height:50px;width:100px\">Clip 7</button><audio src=\"audio/selected_audio_files/0159038962.wav\" id = \"clip_4Seedlings0159038962\"></audio><button id=\"audio_button_4Seedlings0159038962\" onclick=\"ChangeColour(audio_button_4Seedlings0159038962); window.which_clicked = UpdateClicked(this.id,window.which_clicked);window.which_clicked = EnableButtons(window.which_clicked); PlaySound(clip_4Seedlings0159038962);\" class=\"jspsych-btn\" style=\"background-color: white; height:50px;width:100px\">Clip 8</button><audio src=\"audio/selected_audio_files/0315524736.wav\" id = \"clip_4Seedlings0315524736\"></audio><button id=\"audio_button_4Seedlings0315524736\" onclick=\"ChangeColour(audio_button_4Seedlings0315524736); window.which_clicked = UpdateClicked(this.id,window.which_clicked);window.which_clicked = EnableButtons(window.which_clicked); PlaySound(clip_4Seedlings0315524736);\" class=\"jspsych-btn\" style=\"background-color: white; height:50px;width:100px\">Clip 9</button><audio src=\"audio/selected_audio_files/0987318079.wav\" id = \"clip_4Seedlings0987318079\"></audio><button id=\"audio_button_4Seedlings0987318079\" onclick=\"ChangeColour(audio_button_4Seedlings0987318079); window.which_clicked = UpdateClicked(this.id,window.which_clicked);window.which_clicked = EnableButtons(window.which_clicked); PlaySound(clip_4Seedlings0987318079);\" class=\"jspsych-btn\" style=\"background-color: white; height:50px;width:100px\">Clip 10</button>","subject":"1xwsadhldt6wxwm","time_elapsed":264976,"trial_index":22,"trial_type":"html-button-response","unique_id":"4Seedlings"},{"age_group":"19-36","button_pressed":"1","correct":1,"fullscreen":true,"gender":"F","internal_node_id":"0.0-5.0-1.0-0.4","language":"Non-English","phase":"Language","rt":11449.000000000058,"stimulus":"<audio src=\"audio/selected_audio_files/0534359458.wav\" id = \"clip_39Tsimane0534359458\"></audio><button id=\"audio_button_39Tsimane0534359458\" onclick=\"ChangeColour(audio_button_39Tsimane0534359458); window.which_clicked = UpdateClicked(this.id,window.which_clicked);window.which_clicked = EnableButtons(window.which_clicked); PlaySound(clip_39Tsimane0534359458);\" class=\"jspsych-btn\" style=\"background-color: white; height:50px;width:100px\">Clip 1</button><audio src=\"audio/selected_audio_files/0912462888.wav\" id = \"clip_39Tsimane0912462888\"></audio><button id=\"audio_button_39Tsimane0912462888\" onclick=\"ChangeColour(audio_button_39Tsimane0912462888); window.which_clicked = UpdateClicked(this.id,window.which_clicked);window.which_clicked = EnableButtons(window.which_clicked); PlaySound(clip_39Tsimane0912462888);\" class=\"jspsych-btn\" style=\"background-color: white; height:50px;width:100px\">Clip 2</button><audio src=\"audio/selected_audio_files/0851297127.wav\" id = \"clip_39Tsimane0851297127\"></audio><button id=\"audio_button_39Tsimane0851297127\" onclick=\"ChangeColour(audio_button_39Tsimane0851297127); window.which_clicked = UpdateClicked(this.id,window.which_clicked);window.which_clicked = EnableButtons(window.which_clicked); PlaySound(clip_39Tsimane0851297127);\" class=\"jspsych-btn\" style=\"background-color: white; height:50px;width:100px\">Clip 3</button><audio src=\"audio/selected_audio_files/0563373495.wav\" id = \"clip_39Tsimane0563373495\"></audio><button id=\"audio_button_39Tsimane0563373495\" onclick=\"ChangeColour(audio_button_39Tsimane0563373495); window.which_clicked = UpdateClicked(this.id,window.which_clicked);window.which_clicked = EnableButtons(window.which_clicked); PlaySound(clip_39Tsimane0563373495);\" class=\"jspsych-btn\" style=\"background-color: white; height:50px;width:100px\">Clip 4</button><audio src=\"audio/selected_audio_files/0575763476.wav\" id = \"clip_39Tsimane0575763476\"></audio><button id=\"audio_button_39Tsimane0575763476\" onclick=\"ChangeColour(audio_button_39Tsimane0575763476); window.which_clicked = UpdateClicked(this.id,window.which_clicked);window.which_clicked = EnableButtons(window.which_clicked); PlaySound(clip_39Tsimane0575763476);\" class=\"jspsych-btn\" style=\"background-color: white; height:50px;width:100px\">Clip 5</button><audio src=\"audio/selected_audio_files/0579289618.wav\" id = \"clip_39Tsimane0579289618\"></audio><button id=\"audio_button_39Tsimane0579289618\" onclick=\"ChangeColour(audio_button_39Tsimane0579289618); window.which_clicked = UpdateClicked(this.id,window.which_clicked);window.which_clicked = EnableButtons(window.which_clicked); PlaySound(clip_39Tsimane0579289618);\" class=\"jspsych-btn\" style=\"background-color: white; height:50px;width:100px\">Clip 6</button><audio src=\"audio/selected_audio_files/0313377030.wav\" id = \"clip_39Tsimane0313377030\"></audio><button id=\"audio_button_39Tsimane0313377030\" onclick=\"ChangeColour(audio_button_39Tsimane0313377030); window.which_clicked = UpdateClicked(this.id,window.which_clicked);window.which_clicked = EnableButtons(window.which_clicked); PlaySound(clip_39Tsimane0313377030);\" class=\"jspsych-btn\" style=\"background-color: white; height:50px;width:100px\">Clip 7</button><audio src=\"audio/selected_audio_files/0197132309.wav\" id = \"clip_39Tsimane0197132309\"></audio><button id=\"audio_button_39Tsimane0197132309\" onclick=\"ChangeColour(audio_button_39Tsimane0197132309); window.which_clicked = UpdateClicked(this.id,window.which_clicked);window.which_clicked = EnableButtons(window.which_clicked); PlaySound(clip_39Tsimane0197132309);\" class=\"jspsych-btn\" style=\"background-color: white; height:50px;width:100px\">Clip 8</button><audio src=\"audio/selected_audio_files/0271723668.wav\" id = \"clip_39Tsimane0271723668\"></audio><button id=\"audio_button_39Tsimane0271723668\" onclick=\"ChangeColour(audio_button_39Tsimane0271723668); window.which_clicked = UpdateClicked(this.id,window.which_clicked);window.which_clicked = EnableButtons(window.which_clicked); PlaySound(clip_39Tsimane0271723668);\" class=\"jspsych-btn\" style=\"background-color: white; height:50px;width:100px\">Clip 9</button><audio src=\"audio/selected_audio_files/0314992620.wav\" id = \"clip_39Tsimane0314992620\"></audio><button id=\"audio_button_39Tsimane0314992620\" onclick=\"ChangeColour(audio_button_39Tsimane0314992620); window.which_clicked = UpdateClicked(this.id,window.which_clicked);window.which_clicked = EnableButtons(window.which_clicked); PlaySound(clip_39Tsimane0314992620);\" class=\"jspsych-btn\" style=\"background-color: white; height:50px;width:100px\">Clip 10</button>","subject":"1xwsadhldt6wxwm","time_elapsed":276440,"trial_index":23,"trial_type":"html-button-response","unique_id":"39Tsimane"},{"age_group":"8-18","button_pressed":"1","correct":1,"fullscreen":true,"gender":"M","internal_node_id":"0.0-5.0-1.0-0.5","language":"Non-English","phase":"Language","rt":9423,"stimulus":"<audio src=\"audio/selected_audio_files/0605580932.wav\" id = \"clip_8787Tseltal0605580932\"></audio><button id=\"audio_button_8787Tseltal0605580932\" onclick=\"ChangeColour(audio_button_8787Tseltal0605580932); window.which_clicked = UpdateClicked(this.id,window.which_clicked);window.which_clicked = EnableButtons(window.which_clicked); PlaySound(clip_8787Tseltal0605580932);\" class=\"jspsych-btn\" style=\"background-color: white; height:50px;width:100px\">Clip 1</button><audio src=\"audio/selected_audio_files/0564342176.wav\" id = \"clip_8787Tseltal0564342176\"></audio><button id=\"audio_button_8787Tseltal0564342176\" onclick=\"ChangeColour(audio_button_8787Tseltal0564342176); window.which_clicked = UpdateClicked(this.id,window.which_clicked);window.which_clicked = EnableButtons(window.which_clicked); PlaySound(clip_8787Tseltal0564342176);\" class=\"jspsych-btn\" style=\"background-color: white; height:50px;width:100px\">Clip 2</button><audio src=\"audio/selected_audio_files/0923086358.wav\" id = \"clip_8787Tseltal0923086358\"></audio><button id=\"audio_button_8787Tseltal0923086358\" onclick=\"ChangeColour(audio_button_8787Tseltal0923086358); window.which_clicked = UpdateClicked(this.id,window.which_clicked);window.which_clicked = EnableButtons(window.which_clicked); PlaySound(clip_8787Tseltal0923086358);\" class=\"jspsych-btn\" style=\"background-color: white; height:50px;width:100px\">Clip 3</button><audio src=\"audio/selected_audio_files/0519357031.wav\" id = \"clip_8787Tseltal0519357031\"></audio><button id=\"audio_button_8787Tseltal0519357031\" onclick=\"ChangeColour(audio_button_8787Tseltal0519357031); window.which_clicked = UpdateClicked(this.id,window.which_clicked);window.which_clicked = EnableButtons(window.which_clicked); PlaySound(clip_8787Tseltal0519357031);\" class=\"jspsych-btn\" style=\"background-color: white; height:50px;width:100px\">Clip 4</button><audio src=\"audio/selected_audio_files/0225709263.wav\" id = \"clip_8787Tseltal0225709263\"></audio><button id=\"audio_button_8787Tseltal0225709263\" onclick=\"ChangeColour(audio_button_8787Tseltal0225709263); window.which_clicked = UpdateClicked(this.id,window.which_clicked);window.which_clicked = EnableButtons(window.which_clicked); PlaySound(clip_8787Tseltal0225709263);\" class=\"jspsych-btn\" style=\"background-color: white; height:50px;width:100px\">Clip 5</button><audio src=\"audio/selected_audio_files/0816393372.wav\" id = \"clip_8787Tseltal0816393372\"></audio><button id=\"audio_button_8787Tseltal0816393372\" onclick=\"ChangeColour(audio_button_8787Tseltal0816393372); window.which_clicked = UpdateClicked(this.id,window.which_clicked);window.which_clicked = EnableButtons(window.which_clicked); PlaySound(clip_8787Tseltal0816393372);\" class=\"jspsych-btn\" style=\"background-color: white; height:50px;width:100px\">Clip 6</button><audio src=\"audio/selected_audio_files/0146608322.wav\" id = \"clip_8787Tseltal0146608322\"></audio><button id=\"audio_button_8787Tseltal0146608322\" onclick=\"ChangeColour(audio_button_8787Tseltal0146608322); window.which_clicked = UpdateClicked(this.id,window.which_clicked);window.which_clicked = EnableButtons(window.which_clicked); PlaySound(clip_8787Tseltal0146608322);\" class=\"jspsych-btn\" style=\"background-color: white; height:50px;width:100px\">Clip 7</button><audio src=\"audio/selected_audio_files/0981971782.wav\" id = \"clip_8787Tseltal0981971782\"></audio><button id=\"audio_button_8787Tseltal0981971782\" onclick=\"ChangeColour(audio_button_8787Tseltal0981971782); window.which_clicked = UpdateClicked(this.id,window.which_clicked);window.which_clicked = EnableButtons(window.which_clicked); PlaySound(clip_8787Tseltal0981971782);\" class=\"jspsych-btn\" style=\"background-color: white; height:50px;width:100px\">Clip 8</button><audio src=\"audio/selected_audio_files/0359973494.wav\" id = \"clip_8787Tseltal0359973494\"></audio><button id=\"audio_button_8787Tseltal0359973494\" onclick=\"ChangeColour(audio_button_8787Tseltal0359973494); window.which_clicked = UpdateClicked(this.id,window.which_clicked);window.which_clicked = EnableButtons(window.which_clicked); PlaySound(clip_8787Tseltal0359973494);\" class=\"jspsych-btn\" style=\"background-color: white; height:50px;width:100px\">Clip 9</button><audio src=\"audio/selected_audio_files/0112566501.wav\" id = \"clip_8787Tseltal0112566501\"></audio><button id=\"audio_button_8787Tseltal0112566501\" onclick=\"ChangeColour(audio_button_8787Tseltal0112566501); window.which_clicked = UpdateClicked(this.id,window.which_clicked);window.which_clicked = EnableButtons(window.which_clicked); PlaySound(clip_8787Tseltal0112566501);\" class=\"jspsych-btn\" style=\"background-color: white; height:50px;width:100px\">Clip 10</button>","subject":"1xwsadhldt6wxwm","time_elapsed":285877,"trial_index":24,"trial_type":"html-button-response","unique_id":"8787Tseltal"},{"age_group":"19-36","button_pressed":"1","correct":0,"fullscreen":true,"gender":"M","internal_node_id":"0.0-5.0-1.0-0.6","language":"English","phase":"Language","rt":10017,"stimulus":"<audio src=\"audio/selected_audio_files/0617697660.wav\" id = \"clip_11Seedlings0617697660\"></audio><button id=\"audio_button_11Seedlings0617697660\" onclick=\"ChangeColour(audio_button_11Seedlings0617697660); window.which_clicked = UpdateClicked(this.id,window.which_clicked);window.which_clicked = EnableButtons(window.which_clicked); PlaySound(clip_11Seedlings0617697660);\" class=\"jspsych-btn\" style=\"background-color: white; height:50px;width:100px\">Clip 1</button><audio src=\"audio/selected_audio_files/0965888736.wav\" id = \"clip_11Seedlings0965888736\"></audio><button id=\"audio_button_11Seedlings0965888736\" onclick=\"ChangeColour(audio_button_11Seedlings0965888736); window.which_clicked = UpdateClicked(this.id,window.which_clicked);window.which_clicked = EnableButtons(window.which_clicked); PlaySound(clip_11Seedlings0965888736);\" class=\"jspsych-btn\" style=\"background-color: white; height:50px;width:100px\">Clip 2</button><audio src=\"audio/selected_audio_files/0431667623.wav\" id = \"clip_11Seedlings0431667623\"></audio><button id=\"audio_button_11Seedlings0431667623\" onclick=\"ChangeColour(audio_button_11Seedlings0431667623); window.which_clicked = UpdateClicked(this.id,window.which_clicked);window.which_clicked = EnableButtons(window.which_clicked); PlaySound(clip_11Seedlings0431667623);\" class=\"jspsych-btn\" style=\"background-color: white; height:50px;width:100px\">Clip 3</button><audio src=\"audio/selected_audio_files/0130118234.wav\" id = \"clip_11Seedlings0130118234\"></audio><button id=\"audio_button_11Seedlings0130118234\" onclick=\"ChangeColour(audio_button_11Seedlings0130118234); window.which_clicked = UpdateClicked(this.id,window.which_clicked);window.which_clicked = EnableButtons(window.which_clicked); PlaySound(clip_11Seedlings0130118234);\" class=\"jspsych-btn\" style=\"background-color: white; height:50px;width:100px\">Clip 4</button><audio src=\"audio/selected_audio_files/0466549774.wav\" id = \"clip_11Seedlings0466549774\"></audio><button id=\"audio_button_11Seedlings0466549774\" onclick=\"ChangeColour(audio_button_11Seedlings0466549774); window.which_clicked = UpdateClicked(this.id,window.which_clicked);window.which_clicked = EnableButtons(window.which_clicked); PlaySound(clip_11Seedlings0466549774);\" class=\"jspsych-btn\" style=\"background-color: white; height:50px;width:100px\">Clip 5</button><audio src=\"audio/selected_audio_files/0676881411.wav\" id = \"clip_11Seedlings0676881411\"></audio><button id=\"audio_button_11Seedlings0676881411\" onclick=\"ChangeColour(audio_button_11Seedlings0676881411); window.which_clicked = UpdateClicked(this.id,window.which_clicked);window.which_clicked = EnableButtons(window.which_clicked); PlaySound(clip_11Seedlings0676881411);\" class=\"jspsych-btn\" style=\"background-color: white; height:50px;width:100px\">Clip 6</button><audio src=\"audio/selected_audio_files/0758980385.wav\" id = \"clip_11Seedlings0758980385\"></audio><button id=\"audio_button_11Seedlings0758980385\" onclick=\"ChangeColour(audio_button_11Seedlings0758980385); window.which_clicked = UpdateClicked(this.id,window.which_clicked);window.which_clicked = EnableButtons(window.which_clicked); PlaySound(clip_11Seedlings0758980385);\" class=\"jspsych-btn\" style=\"background-color: white; height:50px;width:100px\">Clip 7</button><audio src=\"audio/selected_audio_files/0528092097.wav\" id = \"clip_11Seedlings0528092097\"></audio><button id=\"audio_button_11Seedlings0528092097\" onclick=\"ChangeColour(audio_button_11Seedlings0528092097); window.which_clicked = UpdateClicked(this.id,window.which_clicked);window.which_clicked = EnableButtons(window.which_clicked); PlaySound(clip_11Seedlings0528092097);\" class=\"jspsych-btn\" style=\"background-color: white; height:50px;width:100px\">Clip 8</button><audio src=\"audio/selected_audio_files/0694178830.wav\" id = \"clip_11Seedlings0694178830\"></audio><button id=\"audio_button_11Seedlings0694178830\" onclick=\"ChangeColour(audio_button_11Seedlings0694178830); window.which_clicked = UpdateClicked(this.id,window.which_clicked);window.which_clicked = EnableButtons(window.which_clicked); PlaySound(clip_11Seedlings0694178830);\" class=\"jspsych-btn\" style=\"background-color: white; height:50px;width:100px\">Clip 9</button><audio src=\"audio/selected_audio_files/0608611414.wav\" id = \"clip_11Seedlings0608611414\"></audio><button id=\"audio_button_11Seedlings0608611414\" onclick=\"ChangeColour(audio_button_11Seedlings0608611414); window.which_clicked = UpdateClicked(this.id,window.which_clicked);window.which_clicked = EnableButtons(window.which_clicked); PlaySound(clip_11Seedlings0608611414);\" class=\"jspsych-btn\" style=\"background-color: white; height:50px;width:100px\">Clip 10</button>","subject":"1xwsadhldt6wxwm","time_elapsed":295911,"trial_index":25,"trial_type":"html-button-response","unique_id":"11Seedlings"},{"age_group":"0-7","button_pressed":"1","correct":0,"fullscreen":true,"gender":"F","internal_node_id":"0.0-5.0-1.0-0.7","language":"English","phase":"Language","rt":9472,"stimulus":"<audio src=\"audio/selected_audio_files/0471900310.wav\" id = \"clip_36Seedlings0471900310\"></audio><button id=\"audio_button_36Seedlings0471900310\" onclick=\"ChangeColour(audio_button_36Seedlings0471900310); window.which_clicked = UpdateClicked(this.id,window.which_clicked);window.which_clicked = EnableButtons(window.which_clicked); PlaySound(clip_36Seedlings0471900310);\" class=\"jspsych-btn\" style=\"background-color: white; height:50px;width:100px\">Clip 1</button><audio src=\"audio/selected_audio_files/0442358514.wav\" id = \"clip_36Seedlings0442358514\"></audio><button id=\"audio_button_36Seedlings0442358514\" onclick=\"ChangeColour(audio_button_36Seedlings0442358514); window.which_clicked = UpdateClicked(this.id,window.which_clicked);window.which_clicked = EnableButtons(window.which_clicked); PlaySound(clip_36Seedlings0442358514);\" class=\"jspsych-btn\" style=\"background-color: white; height:50px;width:100px\">Clip 2</button><audio src=\"audio/selected_audio_files/0957224408.wav\" id = \"clip_36Seedlings0957224408\"></audio><button id=\"audio_button_36Seedlings0957224408\" onclick=\"ChangeColour(audio_button_36Seedlings0957224408); window.which_clicked = UpdateClicked(this.id,window.which_clicked);window.which_clicked = EnableButtons(window.which_clicked); PlaySound(clip_36Seedlings0957224408);\" class=\"jspsych-btn\" style=\"background-color: white; height:50px;width:100px\">Clip 3</button><audio src=\"audio/selected_audio_files/0137105480.wav\" id = \"clip_36Seedlings0137105480\"></audio><button id=\"audio_button_36Seedlings0137105480\" onclick=\"ChangeColour(audio_button_36Seedlings0137105480); window.which_clicked = UpdateClicked(this.id,window.which_clicked);window.which_clicked = EnableButtons(window.which_clicked); PlaySound(clip_36Seedlings0137105480);\" class=\"jspsych-btn\" style=\"background-color: white; height:50px;width:100px\">Clip 4</button><audio src=\"audio/selected_audio_files/0978737264.wav\" id = \"clip_36Seedlings0978737264\"></audio><button id=\"audio_button_36Seedlings0978737264\" onclick=\"ChangeColour(audio_button_36Seedlings0978737264); window.which_clicked = UpdateClicked(this.id,window.which_clicked);window.which_clicked = EnableButtons(window.which_clicked); PlaySound(clip_36Seedlings0978737264);\" class=\"jspsych-btn\" style=\"background-color: white; height:50px;width:100px\">Clip 5</button><audio src=\"audio/selected_audio_files/0424199364.wav\" id = \"clip_36Seedlings0424199364\"></audio><button id=\"audio_button_36Seedlings0424199364\" onclick=\"ChangeColour(audio_button_36Seedlings0424199364); window.which_clicked = UpdateClicked(this.id,window.which_clicked);window.which_clicked = EnableButtons(window.which_clicked); PlaySound(clip_36Seedlings0424199364);\" class=\"jspsych-btn\" style=\"background-color: white; height:50px;width:100px\">Clip 6</button><audio src=\"audio/selected_audio_files/0103217449.wav\" id = \"clip_36Seedlings0103217449\"></audio><button id=\"audio_button_36Seedlings0103217449\" onclick=\"ChangeColour(audio_button_36Seedlings0103217449); window.which_clicked = UpdateClicked(this.id,window.which_clicked);window.which_clicked = EnableButtons(window.which_clicked); PlaySound(clip_36Seedlings0103217449);\" class=\"jspsych-btn\" style=\"background-color: white; height:50px;width:100px\">Clip 7</button><audio src=\"audio/selected_audio_files/0598745689.wav\" id = \"clip_36Seedlings0598745689\"></audio><button id=\"audio_button_36Seedlings0598745689\" onclick=\"ChangeColour(audio_button_36Seedlings0598745689); window.which_clicked = UpdateClicked(this.id,window.which_clicked);window.which_clicked = EnableButtons(window.which_clicked); PlaySound(clip_36Seedlings0598745689);\" class=\"jspsych-btn\" style=\"background-color: white; height:50px;width:100px\">Clip 8</button><audio src=\"audio/selected_audio_files/0218621133.wav\" id = \"clip_36Seedlings0218621133\"></audio><button id=\"audio_button_36Seedlings0218621133\" onclick=\"ChangeColour(audio_button_36Seedlings0218621133); window.which_clicked = UpdateClicked(this.id,window.which_clicked);window.which_clicked = EnableButtons(window.which_clicked); PlaySound(clip_36Seedlings0218621133);\" class=\"jspsych-btn\" style=\"background-color: white; height:50px;width:100px\">Clip 9</button><audio src=\"audio/selected_audio_files/0144098495.wav\" id = \"clip_36Seedlings0144098495\"></audio><button id=\"audio_button_36Seedlings0144098495\" onclick=\"ChangeColour(audio_button_36Seedlings0144098495); window.which_clicked = UpdateClicked(this.id,window.which_clicked);window.which_clicked = EnableButtons(window.which_clicked); PlaySound(clip_36Seedlings0144098495);\" class=\"jspsych-btn\" style=\"background-color: white; height:50px;width:100px\">Clip 10</button>","subject":"1xwsadhldt6wxwm","time_elapsed":305399,"trial_index":26,"trial_type":"html-button-response","unique_id":"36Seedlings"},{"age_group":"0-7","button_pressed":"0","correct":1,"fullscreen":true,"gender":"M","internal_node_id":"0.0-5.0-1.0-0.8","language":"English","phase":"Language","rt":9125,"stimulus":"<audio src=\"audio/selected_audio_files/0753696468.wav\" id = \"clip_26Seedlings0753696468\"></audio><button id=\"audio_button_26Seedlings0753696468\" onclick=\"ChangeColour(audio_button_26Seedlings0753696468); window.which_clicked = UpdateClicked(this.id,window.which_clicked);window.which_clicked = EnableButtons(window.which_clicked); PlaySound(clip_26Seedlings0753696468);\" class=\"jspsych-btn\" style=\"background-color: white; height:50px;width:100px\">Clip 1</button><audio src=\"audio/selected_audio_files/0169341437.wav\" id = \"clip_26Seedlings0169341437\"></audio><button id=\"audio_button_26Seedlings0169341437\" onclick=\"ChangeColour(audio_button_26Seedlings0169341437); window.which_clicked = UpdateClicked(this.id,window.which_clicked);window.which_clicked = EnableButtons(window.which_clicked); PlaySound(clip_26Seedlings0169341437);\" class=\"jspsych-btn\" style=\"background-color: white; height:50px;width:100px\">Clip 2</button><audio src=\"audio/selected_audio_files/0535784598.wav\" id = \"clip_26Seedlings0535784598\"></audio><button id=\"audio_button_26Seedlings0535784598\" onclick=\"ChangeColour(audio_button_26Seedlings0535784598); window.which_clicked = UpdateClicked(this.id,window.which_clicked);window.which_clicked = EnableButtons(window.which_clicked); PlaySound(clip_26Seedlings0535784598);\" class=\"jspsych-btn\" style=\"background-color: white; height:50px;width:100px\">Clip 3</button><audio src=\"audio/selected_audio_files/0738764815.wav\" id = \"clip_26Seedlings0738764815\"></audio><button id=\"audio_button_26Seedlings0738764815\" onclick=\"ChangeColour(audio_button_26Seedlings0738764815); window.which_clicked = UpdateClicked(this.id,window.which_clicked);window.which_clicked = EnableButtons(window.which_clicked); PlaySound(clip_26Seedlings0738764815);\" class=\"jspsych-btn\" style=\"background-color: white; height:50px;width:100px\">Clip 4</button><audio src=\"audio/selected_audio_files/0818470541.wav\" id = \"clip_26Seedlings0818470541\"></audio><button id=\"audio_button_26Seedlings0818470541\" onclick=\"ChangeColour(audio_button_26Seedlings0818470541); window.which_clicked = UpdateClicked(this.id,window.which_clicked);window.which_clicked = EnableButtons(window.which_clicked); PlaySound(clip_26Seedlings0818470541);\" class=\"jspsych-btn\" style=\"background-color: white; height:50px;width:100px\">Clip 5</button><audio src=\"audio/selected_audio_files/0444254510.wav\" id = \"clip_26Seedlings0444254510\"></audio><button id=\"audio_button_26Seedlings0444254510\" onclick=\"ChangeColour(audio_button_26Seedlings0444254510); window.which_clicked = UpdateClicked(this.id,window.which_clicked);window.which_clicked = EnableButtons(window.which_clicked); PlaySound(clip_26Seedlings0444254510);\" class=\"jspsych-btn\" style=\"background-color: white; height:50px;width:100px\">Clip 6</button><audio src=\"audio/selected_audio_files/0589760242.wav\" id = \"clip_26Seedlings0589760242\"></audio><button id=\"audio_button_26Seedlings0589760242\" onclick=\"ChangeColour(audio_button_26Seedlings0589760242); window.which_clicked = UpdateClicked(this.id,window.which_clicked);window.which_clicked = EnableButtons(window.which_clicked); PlaySound(clip_26Seedlings0589760242);\" class=\"jspsych-btn\" style=\"background-color: white; height:50px;width:100px\">Clip 7</button><audio src=\"audio/selected_audio_files/0139355820.wav\" id = \"clip_26Seedlings0139355820\"></audio><button id=\"audio_button_26Seedlings0139355820\" onclick=\"ChangeColour(audio_button_26Seedlings0139355820); window.which_clicked = UpdateClicked(this.id,window.which_clicked);window.which_clicked = EnableButtons(window.which_clicked); PlaySound(clip_26Seedlings0139355820);\" class=\"jspsych-btn\" style=\"background-color: white; height:50px;width:100px\">Clip 8</button><audio src=\"audio/selected_audio_files/0657289568.wav\" id = \"clip_26Seedlings0657289568\"></audio><button id=\"audio_button_26Seedlings0657289568\" onclick=\"ChangeColour(audio_button_26Seedlings0657289568); window.which_clicked = UpdateClicked(this.id,window.which_clicked);window.which_clicked = EnableButtons(window.which_clicked); PlaySound(clip_26Seedlings0657289568);\" class=\"jspsych-btn\" style=\"background-color: white; height:50px;width:100px\">Clip 9</button><audio src=\"audio/selected_audio_files/0157501165.wav\" id = \"clip_26Seedlings0157501165\"></audio><button id=\"audio_button_26Seedlings0157501165\" onclick=\"ChangeColour(audio_button_26Seedlings0157501165); window.which_clicked = UpdateClicked(this.id,window.which_clicked);window.which_clicked = EnableButtons(window.which_clicked); PlaySound(clip_26Seedlings0157501165);\" class=\"jspsych-btn\" style=\"background-color: white; height:50px;width:100px\">Clip 10</button>","subject":"1xwsadhldt6wxwm","time_elapsed":314539,"trial_index":27,"trial_type":"html-button-response","unique_id":"26Seedlings"},{"age_group":"8-18","button_pressed":"1","correct":1,"fullscreen":true,"gender":"M","internal_node_id":"0.0-5.0-1.0-0.9","language":"Non-English","phase":"Language","rt":10323.000000000058,"stimulus":"<audio src=\"audio/selected_audio_files/0823157113.wav\" id = \"clip_41Tsimane0823157113\"></audio><button id=\"audio_button_41Tsimane0823157113\" onclick=\"ChangeColour(audio_button_41Tsimane0823157113); window.which_clicked = UpdateClicked(this.id,window.which_clicked);window.which_clicked = EnableButtons(window.which_clicked); PlaySound(clip_41Tsimane0823157113);\" class=\"jspsych-btn\" style=\"background-color: white; height:50px;width:100px\">Clip 1</button><audio sr