{"03o66etlz539pdd":{"data":[{"internal_node_id":"0.0-0.0","phase":"Consent","rt":5467.880000127479,"subject":"03o66etlz539pdd","time_elapsed":5564,"trial_index":0,"trial_type":"external-html","url":"forms/consent.html"},{"internal_node_id":"0.0-1.0","key_press":32,"phase":"Welcome","rt":3978.3650001045316,"stimulus":"Welcome to the experiment. This experiment should take no longer than 30 minutes. Press any key to begin.","subject":"03o66etlz539pdd","time_elapsed":9556,"trial_index":1,"trial_type":"html-keyboard-response"},{"internal_node_id":"0.0-2.0","subject":"03o66etlz539pdd","success":true,"time_elapsed":13403,"trial_index":2,"trial_type":"fullscreen"},{"fullscreen":true,"internal_node_id":"0.0-3.0-0.0","key_press":32,"phase":"Instructions","rt":2982.4850000441074,"stimulus":"<p>Please read these instructions carefully.</p><p><b>Turn off all background audio</b> and <b>use headphones</b> for the experiment</b></p><p>In this experiment, you will be listening to sounds made by babies between the ages of 0-36 months. Your task will be to try and identify characteristics of the baby making those sounds (age, sex, familial language). You will respond by selecting the corresponding button when presented. Please make these judgements based on your initial impressions. Also, when prompted to provide a word, respond by typing in the word 'puppy'. When presented with audio buttons, you must listen to all audio clips before responding and if there are multiple audio clips they are guaranteed to be from the same child.</p><p>Press any key to begin.</p>","subject":"03o66etlz539pdd","time_elapsed":16386,"trial_index":3,"trial_type":"html-keyboard-response"},{"fullscreen":true,"internal_node_id":"0.0-3.0-1.0","phase":"Attention_Check","responses":"{\"Attention_check\":\"puppy\"}","rt":5391.194999916479,"subject":"03o66etlz539pdd","time_elapsed":22785,"trial_index":4,"trial_type":"survey-text"},{"internal_node_id":"0.0-4.0-0.0","key_press":66,"rt":1891,"stimulus":"jspsych-6-2/examples/sound/speech_blue.mp3","subject":"03o66etlz539pdd","time_elapsed":25925,"trial_index":5,"trial_type":"audio-keyboard-response"},{"internal_node_id":"0.0-4.0-1.0","key_press":77,"rt":2040,"stimulus":"jspsych-6-2/examples/sound/speech_green.mp3","subject":"03o66etlz539pdd","time_elapsed":28482,"trial_index":6,"trial_type":"audio-keyboard-response"},{"internal_node_id":"0.0-4.1-0.1","key_press":66,"rt":2229,"stimulus":"jspsych-6-2/examples/sound/speech_blue.mp3","subject":"03o66etlz539pdd","time_elapsed":31223,"trial_index":7,"trial_type":"audio-keyboard-response"},{"internal_node_id":"0.0-4.1-1.1","key_press":84,"rt":2120,"stimulus":"jspsych-6-2/examples/sound/speech_green.mp3","subject":"03o66etlz539pdd","time_elapsed":33860,"trial_index":8,"trial_type":"audio-keyboard-response"},{"internal_node_id":"0.0-4.2-0.2","key_press":66,"rt":1989,"stimulus":"jspsych-6-2/examples/sound/speech_blue.mp3","subject":"03o66etlz539pdd","time_elapsed":36346,"trial_index":9,"trial_type":"audio-keyboard-response"},{"internal_node_id":"0.0-4.2-1.2","key_press":82,"rt":1872,"stimulus":"jspsych-6-2/examples/sound/speech_green.mp3","subject":"03o66etlz539pdd","time_elapsed":38735,"trial_index":10,"trial_type":"audio-keyboard-response"},{"internal_node_id":"0.0-4.3-0.3","key_press":66,"rt":1168,"stimulus":"jspsych-6-2/examples/sound/speech_blue.mp3","subject":"03o66etlz539pdd","time_elapsed":40423,"trial_index":11,"trial_type":"audio-keyboard-response"},{"internal_node_id":"0.0-4.3-1.3","key_press":78,"rt":1171,"stimulus":"jspsych-6-2/examples/sound/speech_green.mp3","subject":"03o66etlz539pdd","time_elapsed":42087,"trial_index":12,"trial_type":"audio-keyboard-response"},{"age_group":"8-18","button_pressed":"0","correct":0,"fullscreen":true,"gender":"F","internal_node_id":"0.0-5.0-0.0-0.0","language":"Non-English","phase":"Sex","rt":17690.14499988407,"stimulus":"<audio src=\"audio/selected_audio_files/0778364155.wav\" id = \"clip_11bTsimane0778364155\"></audio><button id=\"audio_button_11bTsimane0778364155\" onclick=\"ChangeColour(audio_button_11bTsimane0778364155); window.which_clicked = UpdateClicked(this.id,window.which_clicked);window.which_clicked = EnableButtons(window.which_clicked); PlaySound(clip_11bTsimane0778364155);\" class=\"jspsych-btn\" style=\"background-color: white; height:50px;width:100px\">Clip 1</button><audio src=\"audio/selected_audio_files/0778277690.wav\" id = \"clip_11bTsimane0778277690\"></audio><button id=\"audio_button_11bTsimane0778277690\" onclick=\"ChangeColour(audio_button_11bTsimane0778277690); window.which_clicked = UpdateClicked(this.id,window.which_clicked);window.which_clicked = EnableButtons(window.which_clicked); PlaySound(clip_11bTsimane0778277690);\" class=\"jspsych-btn\" style=\"background-color: white; height:50px;width:100px\">Clip 2</button><audio src=\"audio/selected_audio_files/0123414696.wav\" id = \"clip_11bTsimane0123414696\"></audio><button id=\"audio_button_11bTsimane0123414696\" onclick=\"ChangeColour(audio_button_11bTsimane0123414696); window.which_clicked = UpdateClicked(this.id,window.which_clicked);window.which_clicked = EnableButtons(window.which_clicked); PlaySound(clip_11bTsimane0123414696);\" class=\"jspsych-btn\" style=\"background-color: white; height:50px;width:100px\">Clip 3</button><audio src=\"audio/selected_audio_files/0278210215.wav\" id = \"clip_11bTsimane0278210215\"></audio><button id=\"audio_button_11bTsimane0278210215\" onclick=\"ChangeColour(audio_button_11bTsimane0278210215); window.which_clicked = UpdateClicked(this.id,window.which_clicked);window.which_clicked = EnableButtons(window.which_clicked); PlaySound(clip_11bTsimane0278210215);\" class=\"jspsych-btn\" style=\"background-color: white; height:50px;width:100px\">Clip 4</button><audio src=\"audio/selected_audio_files/0681560033.wav\" id = \"clip_11bTsimane0681560033\"></audio><button id=\"audio_button_11bTsimane0681560033\" onclick=\"ChangeColour(audio_button_11bTsimane0681560033); window.which_clicked = UpdateClicked(this.id,window.which_clicked);window.which_clicked = EnableButtons(window.which_clicked); PlaySound(clip_11bTsimane0681560033);\" class=\"jspsych-btn\" style=\"background-color: white; height:50px;width:100px\">Clip 5</button><audio src=\"audio/selected_audio_files/0368085798.wav\" id = \"clip_11bTsimane0368085798\"></audio><button id=\"audio_button_11bTsimane0368085798\" onclick=\"ChangeColour(audio_button_11bTsimane0368085798); window.which_clicked = UpdateClicked(this.id,window.which_clicked);window.which_clicked = EnableButtons(window.which_clicked); PlaySound(clip_11bTsimane0368085798);\" class=\"jspsych-btn\" style=\"background-color: white; height:50px;width:100px\">Clip 6</button><audio src=\"audio/selected_audio_files/0786335650.wav\" id = \"clip_11bTsimane0786335650\"></audio><button id=\"audio_button_11bTsimane0786335650\" onclick=\"ChangeColour(audio_button_11bTsimane0786335650); window.which_clicked = UpdateClicked(this.id,window.which_clicked);window.which_clicked = EnableButtons(window.which_clicked); PlaySound(clip_11bTsimane0786335650);\" class=\"jspsych-btn\" style=\"background-color: white; height:50px;width:100px\">Clip 7</button><audio src=\"audio/selected_audio_files/0149206079.wav\" id = \"clip_11bTsimane0149206079\"></audio><button id=\"audio_button_11bTsimane0149206079\" onclick=\"ChangeColour(audio_button_11bTsimane0149206079); window.which_clicked = UpdateClicked(this.id,window.which_clicked);window.which_clicked = EnableButtons(window.which_clicked); PlaySound(clip_11bTsimane0149206079);\" class=\"jspsych-btn\" style=\"background-color: white; height:50px;width:100px\">Clip 8</button><audio src=\"audio/selected_audio_files/0738367782.wav\" id = \"clip_11bTsimane0738367782\"></audio><button id=\"audio_button_11bTsimane0738367782\" onclick=\"ChangeColour(audio_button_11bTsimane0738367782); window.which_clicked = UpdateClicked(this.id,window.which_clicked);window.which_clicked = EnableButtons(window.which_clicked); PlaySound(clip_11bTsimane0738367782);\" class=\"jspsych-btn\" style=\"background-color: white; height:50px;width:100px\">Clip 9</button><audio src=\"audio/selected_audio_files/0397616096.wav\" id = \"clip_11bTsimane0397616096\"></audio><button id=\"audio_button_11bTsimane0397616096\" onclick=\"ChangeColour(audio_button_11bTsimane0397616096); window.which_clicked = UpdateClicked(this.id,window.which_clicked);window.which_clicked = EnableButtons(window.which_clicked); PlaySound(clip_11bTsimane0397616096);\" class=\"jspsych-btn\" style=\"background-color: white; height:50px;width:100px\">Clip 10</button>","subject":"03o66etlz539pdd","time_elapsed":60301,"trial_index":13,"trial_type":"html-button-response","unique_id":"11bTsimane"},{"age_group":"19-36","button_pressed":"1","correct":0,"fullscreen":true,"gender":"M","internal_node_id":"0.0-5.0-1.0-0.0","language":"English","phase":"Language","rt":10593.774999957532,"stimulus":"<audio src=\"audio/selected_audio_files/0617697660.wav\" id = \"clip_11Seedlings0617697660\"></audio><button id=\"audio_button_11Seedlings0617697660\" onclick=\"ChangeColour(audio_button_11Seedlings0617697660); window.which_clicked = UpdateClicked(this.id,window.which_clicked);window.which_clicked = EnableButtons(window.which_clicked); PlaySound(clip_11Seedlings0617697660);\" class=\"jspsych-btn\" style=\"background-color: white; height:50px;width:100px\">Clip 1</button><audio src=\"audio/selected_audio_files/0965888736.wav\" id = \"clip_11Seedlings0965888736\"></audio><button id=\"audio_button_11Seedlings0965888736\" onclick=\"ChangeColour(audio_button_11Seedlings0965888736); window.which_clicked = UpdateClicked(this.id,window.which_clicked);window.which_clicked = EnableButtons(window.which_clicked); PlaySound(clip_11Seedlings0965888736);\" class=\"jspsych-btn\" style=\"background-color: white; height:50px;width:100px\">Clip 2</button><audio src=\"audio/selected_audio_files/0431667623.wav\" id = \"clip_11Seedlings0431667623\"></audio><button id=\"audio_button_11Seedlings0431667623\" onclick=\"ChangeColour(audio_button_11Seedlings0431667623); window.which_clicked = UpdateClicked(this.id,window.which_clicked);window.which_clicked = EnableButtons(window.which_clicked); PlaySound(clip_11Seedlings0431667623);\" class=\"jspsych-btn\" style=\"background-color: white; height:50px;width:100px\">Clip 3</button><audio src=\"audio/selected_audio_files/0130118234.wav\" id = \"clip_11Seedlings0130118234\"></audio><button id=\"audio_button_11Seedlings0130118234\" onclick=\"ChangeColour(audio_button_11Seedlings0130118234); window.which_clicked = UpdateClicked(this.id,window.which_clicked);window.which_clicked = EnableButtons(window.which_clicked); PlaySound(clip_11Seedlings0130118234);\" class=\"jspsych-btn\" style=\"background-color: white; height:50px;width:100px\">Clip 4</button><audio src=\"audio/selected_audio_files/0466549774.wav\" id = \"clip_11Seedlings0466549774\"></audio><button id=\"audio_button_11Seedlings0466549774\" onclick=\"ChangeColour(audio_button_11Seedlings0466549774); window.which_clicked = UpdateClicked(this.id,window.which_clicked);window.which_clicked = EnableButtons(window.which_clicked); PlaySound(clip_11Seedlings0466549774);\" class=\"jspsych-btn\" style=\"background-color: white; height:50px;width:100px\">Clip 5</button><audio src=\"audio/selected_audio_files/0676881411.wav\" id = \"clip_11Seedlings0676881411\"></audio><button id=\"audio_button_11Seedlings0676881411\" onclick=\"ChangeColour(audio_button_11Seedlings0676881411); window.which_clicked = UpdateClicked(this.id,window.which_clicked);window.which_clicked = EnableButtons(window.which_clicked); PlaySound(clip_11Seedlings0676881411);\" class=\"jspsych-btn\" style=\"background-color: white; height:50px;width:100px\">Clip 6</button><audio src=\"audio/selected_audio_files/0758980385.wav\" id = \"clip_11Seedlings0758980385\"></audio><button id=\"audio_button_11Seedlings0758980385\" onclick=\"ChangeColour(audio_button_11Seedlings0758980385); window.which_clicked = UpdateClicked(this.id,window.which_clicked);window.which_clicked = EnableButtons(window.which_clicked); PlaySound(clip_11Seedlings0758980385);\" class=\"jspsych-btn\" style=\"background-color: white; height:50px;width:100px\">Clip 7</button><audio src=\"audio/selected_audio_files/0528092097.wav\" id = \"clip_11Seedlings0528092097\"></audio><button id=\"audio_button_11Seedlings0528092097\" onclick=\"ChangeColour(audio_button_11Seedlings0528092097); window.which_clicked = UpdateClicked(this.id,window.which_clicked);window.which_clicked = EnableButtons(window.which_clicked); PlaySound(clip_11Seedlings0528092097);\" class=\"jspsych-btn\" style=\"background-color: white; height:50px;width:100px\">Clip 8</button><audio src=\"audio/selected_audio_files/0694178830.wav\" id = \"clip_11Seedlings0694178830\"></audio><button id=\"audio_button_11Seedlings0694178830\" onclick=\"ChangeColour(audio_button_11Seedlings0694178830); window.which_clicked = UpdateClicked(this.id,window.which_clicked);window.which_clicked = EnableButtons(window.which_clicked); PlaySound(clip_11Seedlings0694178830);\" class=\"jspsych-btn\" style=\"background-color: white; height:50px;width:100px\">Clip 9</button><audio src=\"audio/selected_audio_files/0608611414.wav\" id = \"clip_11Seedlings0608611414\"></audio><button id=\"audio_button_11Seedlings0608611414\" onclick=\"ChangeColour(audio_button_11Seedlings0608611414); window.which_clicked = UpdateClicked(this.id,window.which_clicked);window.which_clicked = EnableButtons(window.which_clicked); PlaySound(clip_11Seedlings0608611414);\" class=\"jspsych-btn\" style=\"background-color: white; height:50px;width:100px\">Clip 10</button>","subject":"03o66etlz539pdd","time_elapsed":70901,"trial_index":14,"trial_type":"html-button-response","unique_id":"11Seedlings"},{"age_group":"19-36","button_pressed":"1","correct":0,"fullscreen":true,"gender":"M","internal_node_id":"0.0-5.0-2.0-0.0","language":"English","phase":"Age","rt":13801.200000103563,"stimulus":"<audio src=\"audio/selected_audio_files/0617697660.wav\" id = \"clip_11Seedlings0617697660\"></audio><button id=\"audio_button_11Seedlings0617697660\" onclick=\"ChangeColour(audio_button_11Seedlings0617697660); window.which_clicked = UpdateClicked(this.id,window.which_clicked);window.which_clicked = EnableButtons(window.which_clicked); PlaySound(clip_11Seedlings0617697660);\" class=\"jspsych-btn\" style=\"background-color: white; height:50px;width:100px\">Clip 1</button><audio src=\"audio/selected_audio_files/0965888736.wav\" id = \"clip_11Seedlings0965888736\"></audio><button id=\"audio_button_11Seedlings0965888736\" onclick=\"ChangeColour(audio_button_11Seedlings0965888736); window.which_clicked = UpdateClicked(this.id,window.which_clicked);window.which_clicked = EnableButtons(window.which_clicked); PlaySound(clip_11Seedlings0965888736);\" class=\"jspsych-btn\" style=\"background-color: white; height:50px;width:100px\">Clip 2</button><audio src=\"audio/selected_audio_files/0431667623.wav\" id = \"clip_11Seedlings0431667623\"></audio><button id=\"audio_button_11Seedlings0431667623\" onclick=\"ChangeColour(audio_button_11Seedlings0431667623); window.which_clicked = UpdateClicked(this.id,window.which_clicked);window.which_clicked = EnableButtons(window.which_clicked); PlaySound(clip_11Seedlings0431667623);\" class=\"jspsych-btn\" style=\"background-color: white; height:50px;width:100px\">Clip 3</button><audio src=\"audio/selected_audio_files/0130118234.wav\" id = \"clip_11Seedlings0130118234\"></audio><button id=\"audio_button_11Seedlings0130118234\" onclick=\"ChangeColour(audio_button_11Seedlings0130118234); window.which_clicked = UpdateClicked(this.id,window.which_clicked);window.which_clicked = EnableButtons(window.which_clicked); PlaySound(clip_11Seedlings0130118234);\" class=\"jspsych-btn\" style=\"background-color: white; height:50px;width:100px\">Clip 4</button><audio src=\"audio/selected_audio_files/0466549774.wav\" id = \"clip_11Seedlings0466549774\"></audio><button id=\"audio_button_11Seedlings0466549774\" onclick=\"ChangeColour(audio_button_11Seedlings0466549774); window.which_clicked = UpdateClicked(this.id,window.which_clicked);window.which_clicked = EnableButtons(window.which_clicked); PlaySound(clip_11Seedlings0466549774);\" class=\"jspsych-btn\" style=\"background-color: white; height:50px;width:100px\">Clip 5</button><audio src=\"audio/selected_audio_files/0676881411.wav\" id = \"clip_11Seedlings0676881411\"></audio><button id=\"audio_button_11Seedlings0676881411\" onclick=\"ChangeColour(audio_button_11Seedlings0676881411); window.which_clicked = UpdateClicked(this.id,window.which_clicked);window.which_clicked = EnableButtons(window.which_clicked); PlaySound(clip_11Seedlings0676881411);\" class=\"jspsych-btn\" style=\"background-color: white; height:50px;width:100px\">Clip 6</button><audio src=\"audio/selected_audio_files/0758980385.wav\" id = \"clip_11Seedlings0758980385\"></audio><button id=\"audio_button_11Seedlings0758980385\" onclick=\"ChangeColour(audio_button_11Seedlings0758980385); window.which_clicked = UpdateClicked(this.id,window.which_clicked);window.which_clicked = EnableButtons(window.which_clicked); PlaySound(clip_11Seedlings0758980385);\" class=\"jspsych-btn\" style=\"background-color: white; height:50px;width:100px\">Clip 7</button><audio src=\"audio/selected_audio_files/0528092097.wav\" id = \"clip_11Seedlings0528092097\"></audio><button id=\"audio_button_11Seedlings0528092097\" onclick=\"ChangeColour(audio_button_11Seedlings0528092097); window.which_clicked = UpdateClicked(this.id,window.which_clicked);window.which_clicked = EnableButtons(window.which_clicked); PlaySound(clip_11Seedlings0528092097);\" class=\"jspsych-btn\" style=\"background-color: white; height:50px;width:100px\">Clip 8</button><audio src=\"audio/selected_audio_files/0694178830.wav\" id = \"clip_11Seedlings0694178830\"></audio><button id=\"audio_button_11Seedlings0694178830\" onclick=\"ChangeColour(audio_button_11Seedlings0694178830); window.which_clicked = UpdateClicked(this.id,window.which_clicked);window.which_clicked = EnableButtons(window.which_clicked); PlaySound(clip_11Seedlings0694178830);\" class=\"jspsych-btn\" style=\"background-color: white; height:50px;width:100px\">Clip 9</button><audio src=\"audio/selected_audio_files/0608611414.wav\" id = \"clip_11Seedlings0608611414\"></audio><button id=\"audio_button_11Seedlings0608611414\" onclick=\"ChangeColour(audio_button_11Seedlings0608611414); window.which_clicked = UpdateClicked(this.id,window.which_clicked);window.which_clicked = EnableButtons(window.which_clicked); PlaySound(clip_11Seedlings0608611414);\" class=\"jspsych-btn\" style=\"background-color: white; height:50px;width:100px\">Clip 10</button>","subject":"03o66etlz539pdd","time_elapsed":84709,"trial_index":15,"trial_type":"html-button-response","unique_id":"11Seedlings"},{"fullscreen":true,"internal_node_id":"0.0-6.0-0.0-0.0","phase":"Survey","responses":"{\"Childcare\":\"h\"}","rt":10125.654999865219,"subject":"03o66etlz539pdd","time_elapsed":94837,"trial_index":16,"trial_type":"survey-text"},{"fullscreen":false,"internal_node_id":"0.0-6.0-0.1-0.1","phase":"Survey","responses":"{\"Childcare\":\"h\"}","rt":2173.2199999969453,"subject":"03o66etlz539pdd","time_elapsed":103741,"trial_index":17,"trial_type":"survey-text"},{"fullscreen":false,"internal_node_id":"0.0-6.0-0.2-0.2","phase":"Survey","responses":"{\"Childcare\":\"0\"}","rt":85462.22999994643,"subject":"03o66etlz539pdd","time_elapsed":190387,"trial_index":18,"trial_type":"survey-text"},{"fullscreen":false,"internal_node_id":"0.0-6.0-1.0-0.0","phase":"Survey","responses":"{\"Caregiver\":\"0\"}","rt":4317.579999798909,"subject":"03o66etlz539pdd","time_elapsed":194707,"trial_index":19,"trial_type":"survey-text"},{"fullscreen":false,"internal_node_id":"0.0-6.0-2.0-0.0","phase":"Survey","responses":"{\"Par_Age\":\"0\"}","rt":5039.369999896735,"subject":"03o66etlz539pdd","time_elapsed":199749,"trial_index":20,"trial_type":"survey-text"},{"fullscreen":false,"internal_node_id":"0.0-6.0-3.0","phase":"Survey","responses":"{\"Gender_Q\":\"Female\",\"other_gender_fill_in\":\"\"}","rt":8121.664999984205,"subject":"03o66etlz539pdd","time_elapsed":207872,"trial_index":21,"trial_type":"survey-html-form"},{"fullscreen":false,"internal_node_id":"0.0-6.0-4.0","phase":"Survey","responses":"{\"Country_Q\":\"Other_country\",\"other_country_fill_in\":\"\"}","rt":8299.830000149086,"subject":"03o66etlz539pdd","time_elapsed":216173,"trial_index":22,"trial_type":"survey-html-form"},{"fullscreen":false,"internal_node_id":"0.0-6.0-5.0","phase":"Survey","question_order":"[0]","responses":"{\"Normal_hearing\":\"No\"}","rt":3694.8949999641627,"subject":"03o66etlz539pdd","time_elapsed":219869,"trial_index":23,"trial_type":"survey-multi-choice"},{"fullscreen":false,"internal_node_id":"0.0-6.0-6.0","phase":"Survey","question_order":"[0]","responses":"{\"Engl_first_lang\":\"No\"}","rt":4470.690000103787,"subject":"03o66etlz539pdd","time_elapsed":224354,"trial_index":24,"trial_type":"survey-multi-choice"},{"fullscreen":false,"internal_node_id":"0.0-6.0-7.0","phase":"Survey","question_order":"[0]","responses":"{\"Know_corp_lang\":[]}","rt":7553.430000087246,"subject":"03o66etlz539pdd","time_elapsed":231923,"trial_index":25,"trial_type":"survey-multi-select"},{"fullscreen":false,"internal_node_id":"0.0-6.0-8.0","phase":"Survey","question_order":"[0]","responses":"{\"monolingual\":\"Yes\"}","rt":5360.344999935478,"subject":"03o66etlz539pdd","time_elapsed":237297,"trial_index":26,"trial_type":"survey-multi-choice"},{"internal_node_id":"0.0-7.0","subject":"03o66etlz539pdd","success":true,"time_elapsed":238311,"trial_index":27,"trial_type":"fullscreen"}]},"9w0jmnoqvxwvmad":{"data":[{"internal_node_id":"0.0-0.0","phase":"Consent","rt":336741,"subject":"9w0jmnoqvxwvmad","time_elapsed":337171,"trial_index":0,"trial_type":"external-html","url":"forms/consent.html"},{"internal_node_id":"0.0-1.0","key_press":32,"phase":"Welcome","rt":5092,"stimulus":"Welcome to the experiment. This experiment should take no longer than 30 minutes. Press any key to begin.","subject":"9w0jmnoqvxwvmad","time_elapsed":342266,"trial_index":1,"trial_type":"html-keyboard-response"},{"internal_node_id":"0.0-2.0","subject":"9w0jmnoqvxwvmad","success":true,"time_elapsed":350328,"trial_index":2,"trial_type":"fullscreen"},{"fullscreen":true,"internal_node_id":"0.0-3.0-0.0","key_press":32,"phase":"Instructions","rt":28341,"stimulus":"<p>Please read these instructions carefully.</p><p><b>Turn off all background audio</b> and <b>use headphones</b> for the experiment</b></p><p>In this experiment, you will be listening to sounds made by babies between the ages of 0-36 months. Your task will be to try and identify characteristics of the baby making those sounds (age, sex, familial language). You will respond by selecting the corresponding button when presented. Please make these judgements based on your initial impressions. Also, when prompted to provide a word, respond by typing in the word 'puppy'. When presented with audio buttons, you must listen to all audio clips before responding and if there are multiple audio clips they are guaranteed to be from the same child.</p><p>Press any key to begin.</p>","subject":"9w0jmnoqvxwvmad","time_elapsed":378670,"trial_index":3,"trial_type":"html-keyboard-response"},{"fullscreen":true,"internal_node_id":"0.0-3.0-1.0","phase":"Attention_Check","responses":"{\"Attention_check\":\"puppy\"}","rt":4302,"subject":"9w0jmnoqvxwvmad","time_elapsed":383979,"trial_index":4,"trial_type":"survey-text"},{"internal_node_id":"0.0-4.0-0.0","key_press":32,"rt":5428,"stimulus":"jspsych-6-2/examples/sound/speech_blue.mp3","subject":"9w0jmnoqvxwvmad","time_elapsed":390410,"trial_index":5,"trial_type":"audio-keyboard-response"},{"internal_node_id":"0.0-4.0-1.0","key_press":71,"rt":1562,"stimulus":"jspsych-6-2/examples/sound/speech_green.mp3","subject":"9w0jmnoqvxwvmad","time_elapsed":392477,"trial_index":6,"trial_type":"audio-keyboard-response"},{"internal_node_id":"0.0-4.1-0.1","key_press":66,"rt":1199,"stimulus":"jspsych-6-2/examples/sound/speech_blue.mp3","subject":"9w0jmnoqvxwvmad","time_elapsed":394176,"trial_index":7,"trial_type":"audio-keyboard-response"},{"internal_node_id":"0.0-4.1-1.1","key_press":71,"rt":888,"stimulus":"jspsych-6-2/examples/sound/speech_green.mp3","subject":"9w0jmnoqvxwvmad","time_elapsed":395567,"trial_index":8,"trial_type":"audio-keyboard-response"},{"internal_node_id":"0.0-4.2-0.2","key_press":66,"rt":717,"stimulus":"jspsych-6-2/examples/sound/speech_blue.mp3","subject":"9w0jmnoqvxwvmad","time_elapsed":396787,"trial_index":9,"trial_type":"audio-keyboard-response"},{"internal_node_id":"0.0-4.2-1.2","key_press":71,"rt":569,"stimulus":"jspsych-6-2/examples/sound/speech_green.mp3","subject":"9w0jmnoqvxwvmad","time_elapsed":397859,"trial_index":10,"trial_type":"audio-keyboard-response"},{"internal_node_id":"0.0-4.3-0.3","key_press":66,"rt":743,"stimulus":"jspsych-6-2/examples/sound/speech_blue.mp3","subject":"9w0jmnoqvxwvmad","time_elapsed":399106,"trial_index":11,"trial_type":"audio-keyboard-response"},{"internal_node_id":"0.0-4.3-1.3","key_press":71,"rt":511,"stimulus":"jspsych-6-2/examples/sound/speech_green.mp3","subject":"9w0jmnoqvxwvmad","time_elapsed":400121,"trial_index":12,"trial_type":"audio-keyboard-response"},{"internal_node_id":"0.0-4.4-0.4","key_press":66,"rt":525,"stimulus":"jspsych-6-2/examples/sound/speech_blue.mp3","subject":"9w0jmnoqvxwvmad","time_elapsed":401147,"trial_index":13,"trial_type":"audio-keyboard-response"},{"internal_node_id":"0.0-4.4-1.4","key_press":71,"rt":848,"stimulus":"jspsych-6-2/examples/sound/speech_green.mp3","subject":"9w0jmnoqvxwvmad","time_elapsed":402499,"trial_index":14,"trial_type":"audio-keyboard-response"},{"internal_node_id":"0.0-4.5-0.5","key_press":66,"rt":697,"stimulus":"jspsych-6-2/examples/sound/speech_blue.mp3","subject":"9w0jmnoqvxwvmad","time_elapsed":403697,"trial_index":15,"trial_type":"audio-keyboard-response"},{"internal_node_id":"0.0-4.5-1.5","key_press":71,"rt":717,"stimulus":"jspsych-6-2/examples/sound/speech_green.mp3","subject":"9w0jmnoqvxwvmad","time_elapsed":404921,"trial_index":16,"trial_type":"audio-keyboard-response"},{"internal_node_id":"0.0-4.6-0.6","key_press":66,"rt":705,"stimulus":"jspsych-6-2/examples/sound/speech_blue.mp3","subject":"9w0jmnoqvxwvmad","time_elapsed":406126,"trial_index":17,"trial_type":"audio-keyboard-response"},{"internal_node_id":"0.0-4.6-1.6","key_press":71,"rt":525,"stimulus":"jspsych-6-2/examples/sound/speech_green.mp3","subject":"9w0jmnoqvxwvmad","time_elapsed":407155,"trial_index":18,"trial_type":"audio-keyboard-response"},{"internal_node_id":"0.0-4.7-0.7","key_press":66,"rt":528,"stimulus":"jspsych-6-2/examples/sound/speech_blue.mp3","subject":"9w0jmnoqvxwvmad","time_elapsed":408185,"trial_index":19,"trial_type":"audio-keyboard-response"},{"internal_node_id":"0.0-4.7-1.7","key_press":71,"rt":511,"stimulus":"jspsych-6-2/examples/sound/speech_green.mp3","subject":"9w0jmnoqvxwvmad","time_elapsed":409198,"trial_index":20,"trial_type":"audio-keyboard-response"},{"internal_node_id":"0.0-4.8-0.8","key_press":66,"rt":8156,"stimulus":"jspsych-6-2/examples/sound/speech_blue.mp3","subject":"9w0jmnoqvxwvmad","time_elapsed":417860,"trial_index":21,"trial_type":"audio-keyboard-response"},{"internal_node_id":"0.0-4.8-1.8","key_press":78,"rt":2720,"stimulus":"jspsych-6-2/examples/sound/speech_green.mp3","subject":"9w0jmnoqvxwvmad","time_elapsed":421079,"trial_index":22,"trial_type":"audio-keyboard-response"},{"age_group":"8-18","button_pressed":"1","correct":1,"fullscreen":true,"gender":"F","internal_node_id":"0.0-5.0-0.0-0.0","language":"Non-English","phase":"Sex","rt":44711,"stimulus":"<audio src=\"audio/selected_audio_files/0778364155.wav\" id = \"clip_11bTsimane0778364155\"></audio><button id=\"audio_button_11bTsimane0778364155\" onclick=\"ChangeColour(audio_button_11bTsimane0778364155); window.which_clicked = UpdateClicked(this.id,window.which_clicked);window.which_clicked = EnableButtons(window.which_clicked); PlaySound(clip_11bTsimane0778364155);\" class=\"jspsych-btn\" style=\"background-color: white; height:50px;width:100px\">Clip 1</button><audio src=\"audio/selected_audio_files/0778277690.wav\" id = \"clip_11bTsimane0778277690\"></audio><button id=\"audio_button_11bTsimane0778277690\" onclick=\"ChangeColour(audio_button_11bTsimane0778277690); window.which_clicked = UpdateClicked(this.id,window.which_clicked);window.which_clicked = EnableButtons(window.which_clicked); PlaySound(clip_11bTsimane0778277690);\" class=\"jspsych-btn\" style=\"background-color: white; height:50px;width:100px\">Clip 2</button><audio src=\"audio/selected_audio_files/0123414696.wav\" id = \"clip_11bTsimane0123414696\"></audio><button id=\"audio_button_11bTsimane0123414696\" onclick=\"ChangeColour(audio_button_11bTsimane0123414696); window.which_clicked = UpdateClicked(this.id,window.which_clicked);window.which_clicked = EnableButtons(window.which_clicked); PlaySound(clip_11bTsimane0123414696);\" class=\"jspsych-btn\" style=\"background-color: white; height:50px;width:100px\">Clip 3</button><audio src=\"audio/selected_audio_files/0278210215.wav\" id = \"clip_11bTsimane0278210215\"></audio><button id=\"audio_button_11bTsimane0278210215\" onclick=\"ChangeColour(audio_button_11bTsimane0278210215); window.which_clicked = UpdateClicked(this.id,window.which_clicked);window.which_clicked = EnableButtons(window.which_clicked); PlaySound(clip_11bTsimane0278210215);\" class=\"jspsych-btn\" style=\"background-color: white; height:50px;width:100px\">Clip 4</button><audio src=\"audio/selected_audio_files/0681560033.wav\" id = \"clip_11bTsimane0681560033\"></audio><button id=\"audio_button_11bTsimane0681560033\" onclick=\"ChangeColour(audio_button_11bTsimane0681560033); window.which_clicked = UpdateClicked(this.id,window.which_clicked);window.which_clicked = EnableButtons(window.which_clicked); PlaySound(clip_11bTsimane0681560033);\" class=\"jspsych-btn\" style=\"background-color: white; height:50px;width:100px\">Clip 5</button><audio src=\"audio/selected_audio_files/0368085798.wav\" id = \"clip_11bTsimane0368085798\"></audio><button id=\"audio_button_11bTsimane0368085798\" onclick=\"ChangeColour(audio_button_11bTsimane0368085798); window.which_clicked = UpdateClicked(this.id,window.which_clicked);window.which_clicked = EnableButtons(window.which_clicked); PlaySound(clip_11bTsimane0368085798);\" class=\"jspsych-btn\" style=\"background-color: white; height:50px;width:100px\">Clip 6</button><audio src=\"audio/selected_audio_files/0786335650.wav\" id = \"clip_11bTsimane0786335650\"></audio><button id=\"audio_button_11bTsimane0786335650\" onclick=\"ChangeColour(audio_button_11bTsimane0786335650); window.which_clicked = UpdateClicked(this.id,window.which_clicked);window.which_clicked = EnableButtons(window.which_clicked); PlaySound(clip_11bTsimane0786335650);\" class=\"jspsych-btn\" style=\"background-color: white; height:50px;width:100px\">Clip 7</button><audio src=\"audio/selected_audio_files/0149206079.wav\" id = \"clip_11bTsimane0149206079\"></audio><button id=\"audio_button_11bTsimane0149206079\" onclick=\"ChangeColour(audio_button_11bTsimane0149206079); window.which_clicked = UpdateClicked(this.id,window.which_clicked);window.which_clicked = EnableButtons(window.which_clicked); PlaySound(clip_11bTsimane0149206079);\" class=\"jspsych-btn\" style=\"background-color: white; height:50px;width:100px\">Clip 8</button><audio src=\"audio/selected_audio_files/0738367782.wav\" id = \"clip_11bTsimane0738367782\"></audio><button id=\"audio_button_11bTsimane0738367782\" onclick=\"ChangeColour(audio_button_11bTsimane0738367782); window.which_clicked = UpdateClicked(this.id,window.which_clicked);window.which_clicked = EnableButtons(window.which_clicked); PlaySound(clip_11bTsimane0738367782);\" class=\"jspsych-btn\" style=\"background-color: white; height:50px;width:100px\">Clip 9</button><audio src=\"audio/selected_audio_files/0397616096.wav\" id = \"clip_11bTsimane0397616096\"></audio><button id=\"audio_button_11bTsimane0397616096\" onclick=\"ChangeColour(audio_button_11bTsimane0397616096); window.which_clicked = UpdateClicked(this.id,window.which_clicked);window.which_clicked = EnableButtons(window.which_clicked); PlaySound(clip_11bTsimane0397616096);\" class=\"jspsych-btn\" style=\"background-color: white; height:50px;width:100px\">Clip 10</button>","subject":"9w0jmnoqvxwvmad","time_elapsed":466310,"trial_index":23,"trial_type":"html-button-response","unique_id":"11bTsimane"},{"age_group":"19-36","button_pressed":"0","correct":1,"fullscreen":true,"gender":"M","internal_node_id":"0.0-5.0-1.0-0.0","language":"English","phase":"Language","rt":16294,"stimulus":"<audio src=\"audio/selected_audio_files/0617697660.wav\" id = \"clip_11Seedlings0617697660\"></audio><button id=\"audio_button_11Seedlings0617697660\" onclick=\"ChangeColour(audio_button_11Seedlings0617697660); window.which_clicked = UpdateClicked(this.id,window.which_clicked);window.which_clicked = EnableButtons(window.which_clicked); PlaySound(clip_11Seedlings0617697660);\" class=\"jspsych-btn\" style=\"background-color: white; height:50px;width:100px\">Clip 1</button><audio src=\"audio/selected_audio_files/0965888736.wav\" id = \"clip_11Seedlings0965888736\"></audio><button id=\"audio_button_11Seedlings0965888736\" onclick=\"ChangeColour(audio_button_11Seedlings0965888736); window.which_clicked = UpdateClicked(this.id,window.which_clicked);window.which_clicked = EnableButtons(window.which_clicked); PlaySound(clip_11Seedlings0965888736);\" class=\"jspsych-btn\" style=\"background-color: white; height:50px;width:100px\">Clip 2</button><audio src=\"audio/selected_audio_files/0431667623.wav\" id = \"clip_11Seedlings0431667623\"></audio><button id=\"audio_button_11Seedlings0431667623\" onclick=\"ChangeColour(audio_button_11Seedlings0431667623); window.which_clicked = UpdateClicked(this.id,window.which_clicked);window.which_clicked = EnableButtons(window.which_clicked); PlaySound(clip_11Seedlings0431667623);\" class=\"jspsych-btn\" style=\"background-color: white; height:50px;width:100px\">Clip 3</button><audio src=\"audio/selected_audio_files/0130118234.wav\" id = \"clip_11Seedlings0130118234\"></audio><button id=\"audio_button_11Seedlings0130118234\" onclick=\"ChangeColour(audio_button_11Seedlings0130118234); window.which_clicked = UpdateClicked(this.id,window.which_clicked);window.which_clicked = EnableButtons(window.which_clicked); PlaySound(clip_11Seedlings0130118234);\" class=\"jspsych-btn\" style=\"background-color: white; height:50px;width:100px\">Clip 4</button><audio src=\"audio/selected_audio_files/0466549774.wav\" id = \"clip_11Seedlings0466549774\"></audio><button id=\"audio_button_11Seedlings0466549774\" onclick=\"ChangeColour(audio_button_11Seedlings0466549774); window.which_clicked = UpdateClicked(this.id,window.which_clicked);window.which_clicked = EnableButtons(window.which_clicked); PlaySound(clip_11Seedlings0466549774);\" class=\"jspsych-btn\" style=\"background-color: white; height:50px;width:100px\">Clip 5</button><audio src=\"audio/selected_audio_files/0676881411.wav\" id = \"clip_11Seedlings0676881411\"></audio><button id=\"audio_button_11Seedlings0676881411\" onclick=\"ChangeColour(audio_button_11Seedlings0676881411); window.which_clicked = UpdateClicked(this.id,window.which_clicked);window.which_clicked = EnableButtons(window.which_clicked); PlaySound(clip_11Seedlings0676881411);\" class=\"jspsych-btn\" style=\"background-color: white; height:50px;width:100px\">Clip 6</button><audio src=\"audio/selected_audio_files/0758980385.wav\" id = \"clip_11Seedlings0758980385\"></audio><button id=\"audio_button_11Seedlings0758980385\" onclick=\"ChangeColour(audio_button_11Seedlings0758980385); window.which_clicked = UpdateClicked(this.id,window.which_clicked);window.which_clicked = EnableButtons(window.which_clicked); PlaySound(clip_11Seedlings0758980385);\" class=\"jspsych-btn\" style=\"background-color: white; height:50px;width:100px\">Clip 7</button><audio src=\"audio/selected_audio_files/0528092097.wav\" id = \"clip_11Seedlings0528092097\"></audio><button id=\"audio_button_11Seedlings0528092097\" onclick=\"ChangeColour(audio_button_11Seedlings0528092097); window.which_clicked = UpdateClicked(this.id,window.which_clicked);window.which_clicked = EnableButtons(window.which_clicked); PlaySound(clip_11Seedlings0528092097);\" class=\"jspsych-btn\" style=\"background-color: white; height:50px;width:100px\">Clip 8</button><audio src=\"audio/selected_audio_files/0694178830.wav\" id = \"clip_11Seedlings0694178830\"></audio><button id=\"audio_button_11Seedlings0694178830\" onclick=\"ChangeColour(audio_button_11Seedlings0694178830); window.which_clicked = UpdateClicked(this.id,window.which_clicked);window.which_clicked = EnableButtons(window.which_clicked); PlaySound(clip_11Seedlings0694178830);\" class=\"jspsych-btn\" style=\"background-color: white; height:50px;width:100px\">Clip 9</button><audio src=\"audio/selected_audio_files/0608611414.wav\" id = \"clip_11Seedlings0608611414\"></audio><button id=\"audio_button_11Seedlings0608611414\" onclick=\"ChangeColour(audio_button_11Seedlings0608611414); window.which_clicked = UpdateClicked(this.id,window.which_clicked);window.which_clicked = EnableButtons(window.which_clicked); PlaySound(clip_11Seedlings0608611414);\" class=\"jspsych-btn\" style=\"background-color: white; height:50px;width:100px\">Clip 10</button>","subject":"9w0jmnoqvxwvmad","time_elapsed":482612,"trial_index":24,"trial_type":"html-button-response","unique_id":"11Seedlings"},{"age_group":"19-36","button_pressed":"1","correct":0,"fullscreen":true,"gender":"M","internal_node_id":"0.0-5.0-2.0-0.0","language":"English","phase":"Age","rt":15055,"stimulus":"<audio src=\"audio/selected_audio_files/0617697660.wav\" id = \"clip_11Seedlings0617697660\"></audio><button id=\"audio_button_11Seedlings0617697660\" onclick=\"ChangeColour(audio_button_11Seedlings0617697660); window.which_clicked = UpdateClicked(this.id,window.which_clicked);window.which_clicked = EnableButtons(window.which_clicked); PlaySound(clip_11Seedlings0617697660);\" class=\"jspsych-btn\" style=\"background-color: white; height:50px;width:100px\">Clip 1</button><audio src=\"audio/selected_audio_files/0965888736.wav\" id = \"clip_11Seedlings0965888736\"></audio><button id=\"audio_button_11Seedlings0965888736\" onclick=\"ChangeColour(audio_button_11Seedlings0965888736); window.which_clicked = UpdateClicked(this.id,window.which_clicked);window.which_clicked = EnableButtons(window.which_clicked); PlaySound(clip_11Seedlings0965888736);\" class=\"jspsych-btn\" style=\"background-color: white; height:50px;width:100px\">Clip 2</button><audio src=\"audio/selected_audio_files/0431667623.wav\" id = \"clip_11Seedlings0431667623\"></audio><button id=\"audio_button_11Seedlings0431667623\" onclick=\"ChangeColour(audio_button_11Seedlings0431667623); window.which_clicked = UpdateClicked(this.id,window.which_clicked);window.which_clicked = EnableButtons(window.which_clicked); PlaySound(clip_11Seedlings0431667623);\" class=\"jspsych-btn\" style=\"background-color: white; height:50px;width:100px\">Clip 3</button><audio src=\"audio/selected_audio_files/0130118234.wav\" id = \"clip_11Seedlings0130118234\"></audio><button id=\"audio_button_11Seedlings0130118234\" onclick=\"ChangeColour(audio_button_11Seedlings0130118234); window.which_clicked = UpdateClicked(this.id,window.which_clicked);window.which_clicked = EnableButtons(window.which_clicked); PlaySound(clip_11Seedlings0130118234);\" class=\"jspsych-btn\" style=\"background-color: white; height:50px;width:100px\">Clip 4</button><audio src=\"audio/selected_audio_files/0466549774.wav\" id = \"clip_11Seedlings0466549774\"></audio><button id=\"audio_button_11Seedlings0466549774\" onclick=\"ChangeColour(audio_button_11Seedlings0466549774); window.which_clicked = UpdateClicked(this.id,window.which_clicked);window.which_clicked = EnableButtons(window.which_clicked); PlaySound(clip_11Seedlings0466549774);\" class=\"jspsych-btn\" style=\"background-color: white; height:50px;width:100px\">Clip 5</button><audio src=\"audio/selected_audio_files/0676881411.wav\" id = \"clip_11Seedlings0676881411\"></audio><button id=\"audio_button_11Seedlings0676881411\" onclick=\"ChangeColour(audio_button_11Seedlings0676881411); window.which_clicked = UpdateClicked(this.id,window.which_clicked);window.which_clicked = EnableButtons(window.which_clicked); PlaySound(clip_11Seedlings0676881411);\" class=\"jspsych-btn\" style=\"background-color: white; height:50px;width:100px\">Clip 6</button><audio src=\"audio/selected_audio_files/0758980385.wav\" id = \"clip_11Seedlings0758980385\"></audio><button id=\"audio_button_11Seedlings0758980385\" onclick=\"ChangeColour(audio_button_11Seedlings0758980385); window.which_clicked = UpdateClicked(this.id,window.which_clicked);window.which_clicked = EnableButtons(window.which_clicked); PlaySound(clip_11Seedlings0758980385);\" class=\"jspsych-btn\" style=\"background-color: white; height:50px;width:100px\">Clip 7</button><audio src=\"audio/selected_audio_files/0528092097.wav\" id = \"clip_11Seedlings0528092097\"></audio><button id=\"audio_button_11Seedlings0528092097\" onclick=\"ChangeColour(audio_button_11Seedlings0528092097); window.which_clicked = UpdateClicked(this.id,window.which_clicked);window.which_clicked = EnableButtons(window.which_clicked); PlaySound(clip_11Seedlings0528092097);\" class=\"jspsych-btn\" style=\"background-color: white; height:50px;width:100px\">Clip 8</button><audio src=\"audio/selected_audio_files/0694178830.wav\" id = \"clip_11Seedlings0694178830\"></audio><button id=\"audio_button_11Seedlings0694178830\" onclick=\"ChangeColour(audio_button_11Seedlings0694178830); window.which_clicked = UpdateClicked(this.id,window.which_clicked);window.which_clicked = EnableButtons(window.which_clicked); PlaySound(clip_11Seedlings0694178830);\" class=\"jspsych-btn\" style=\"background-color: white; height:50px;width:100px\">Clip 9</button><audio src=\"audio/selected_audio_files/0608611414.wav\" id = \"clip_11Seedlings0608611414\"></audio><button id=\"audio_button_11Seedlings0608611414\" onclick=\"ChangeColour(audio_button_11Seedlings0608611414); window.which_clicked = UpdateClicked(this.id,window.which_clicked);window.which_clicked = EnableButtons(window.which_clicked); PlaySound(clip_11Seedlings0608611414);\" class=\"jspsych-btn\" style=\"background-color: white; height:50px;width:100px\">Clip 10</button>","subject":"9w0jmnoqvxwvmad","time_elapsed":497676,"trial_index":25,"trial_type":"html-button-response","unique_id":"11Seedlings"},{"fullscreen":true,"internal_node_id":"0.0-6.0-0.0-0.0","phase":"Survey","responses":"{\"Childcare\":\"0\"}","rt":11303,"subject":"9w0jmnoqvxwvmad","time_elapsed":508980,"trial_index":26,"trial_type":"survey-text"},{"fullscreen":true,"internal_node_id":"0.0-6.0-1.0-0.0","phase":"Survey","responses":"{\"Caregiver\":\"0\"}","rt":6275,"subject":"9w0jmnoqvxwvmad","time_elapsed":515257,"trial_index":27,"trial_type":"survey-text"},{"fullscreen":true,"internal_node_id":"0.0-6.0-2.0-0.0","phase":"Survey","responses":"{\"Par_Age\":\"44\"}","rt":2797,"subject":"9w0jmnoqvxwvmad","time_elapsed":518056,"trial_index":28,"trial_type":"survey-text"},{"fullscreen":true,"internal_node_id":"0.0-6.0-3.0","phase":"Survey","responses":"{\"Gender_Q\":\"Female\",\"other_gender_fill_in\":\"\"}","rt":4209,"subject":"9w0jmnoqvxwvmad","time_elapsed":522266,"trial_index":29,"trial_type":"survey-html-form"},{"fullscreen":true,"internal_node_id":"0.0-6.0-4.0","phase":"Survey","responses":"{\"Country_Q\":\"Canada\",\"other_country_fill_in\":\"\"}","rt":3099,"subject":"9w0jmnoqvxwvmad","time_elapsed":525365,"trial_index":30,"trial_type":"survey-html-form"},{"fullscreen":true,"internal_node_id":"0.0-6.0-5.0","phase":"Survey","question_order":"[0]","responses":"{\"Normal_hearing\":\"Yes\"}","rt":2831,"subject":"9w0jmnoqvxwvmad","time_elapsed":528198,"trial_index":31,"trial_type":"survey-multi-choice"},{"fullscreen":true,"internal_node_id":"0.0-6.0-6.0","phase":"Survey","question_order":"[0]","responses":"{\"Engl_first_lang\":\"Yes\"}","rt":3025,"subject":"9w0jmnoqvxwvmad","time_elapsed":531226,"trial_index":32,"trial_type":"survey-multi-choice"},{"fullscreen":true,"internal_node_id":"0.0-6.0-7.0","phase":"Survey","question_order":"[0]","responses":"{\"Know_corp_lang\":[]}","rt":6233,"subject":"9w0jmnoqvxwvmad","time_elapsed":537460,"trial_index":33,"trial_type":"survey-multi-select"},{"fullscreen":true,"internal_node_id":"0.0-6.0-8.0","phase":"Survey","question_order":"[0]","responses":"{\"monolingual\":\"Yes\"}","rt":5697,"subject":"9w0jmnoqvxwvmad","time_elapsed":543157,"trial_index":34,"trial_type":"survey-multi-choice"},{"internal_node_id":"0.0-7.0","subject":"9w0jmnoqvxwvmad","success":true,"time_elapsed":544160,"trial_index":35,"trial_type":"fullscreen"}]},"cp4kavdtn3ocp7h":{"data":[{"internal_node_id":"0.0-0.0","phase":"Consent","rt":3818.910000001779,"subject":"cp4kavdtn3ocp7h","time_elapsed":4592,"trial_index":0,"trial_type":"external-html","url":"forms/consent.html"},{"internal_node_id":"0.0-1.0","key_press":74,"phase":"Welcome","rt":2266.5200000010373,"stimulus":"Welcome to the experiment. This experiment should take no longer than 30 minutes. Press any key to begin.","subject":"cp4kavdtn3ocp7h","time_elapsed":6862,"trial_index":1,"trial_type":"html-keyboard-response"},{"internal_node_id":"0.0-2.0","subject":"cp4kavdtn3ocp7h","success":true,"time_elapsed":10094,"trial_index":2,"trial_type":"fullscreen"},{"fullscreen":true,"internal_node_id":"0.0-3.0-0.0","key_press":84,"phase":"Instructions","rt":18492.084999998042,"stimulus":"<p>Please read these instructions carefully.</p><p><b>Turn off all background audio</b> and <b>use headphones</b> for the experiment</b></p><p>In this experiment, you will be listening to sounds made by babies between the ages of 0-36 months. Your task will be to try and identify characteristics of the baby making those sounds (age, sex, familial language). You will respond by selecting the corresponding button when presented. Please make these judgements based on your initial impressions. Also, when prompted to provide a word, respond by typing in the word 'puppy'. When presented with audio buttons, you must listen to all audio clips before responding and if there are multiple audio clips they are guaranteed to be from the same child.</p><p>Press any key to begin.</p>","subject":"cp4kavdtn3ocp7h","time_elapsed":28587,"trial_index":3,"trial_type":"html-keyboard-response"},{"fullscreen":true,"internal_node_id":"0.0-3.0-1.0","phase":"Attention_Check","responses":"{\"Attention_check\":\"puppy\"}","rt":3419.7649999987334,"subject":"cp4kavdtn3ocp7h","time_elapsed":33010,"trial_index":4,"trial_type":"survey-text"},{"internal_node_id":"0.0-4.0-0.0","key_press":70,"rt":10762,"stimulus":"jspsych-6-2/examples/sound/speech_blue.mp3","subject":"cp4kavdtn3ocp7h","time_elapsed":44967,"trial_index":5,"trial_type":"audio-keyboard-response"},{"internal_node_id":"0.0-4.0-1.0","key_press":71,"rt":1678,"stimulus":"jspsych-6-2/examples/sound/speech_green.mp3","subject":"cp4kavdtn3ocp7h","time_elapsed":47150,"trial_index":6,"trial_type":"audio-keyboard-response"},{"internal_node_id":"0.0-4.1-0.1","key_press":66,"rt":1422,"stimulus":"jspsych-6-2/examples/sound/speech_blue.mp3","subject":"cp4kavdtn3ocp7h","time_elapsed":49073,"trial_index":7,"trial_type":"audio-keyboard-response"},{"internal_node_id":"0.0-4.1-1.1","key_press":71,"rt":1393,"stimulus":"jspsych-6-2/examples/sound/speech_green.mp3","subject":"cp4kavdtn3ocp7h","time_elapsed":50975,"trial_index":8,"trial_type":"audio-keyboard-response"},{"internal_node_id":"0.0-4.2-0.2","key_press":66,"rt":1097,"stimulus":"jspsych-6-2/examples/sound/speech_blue.mp3","subject":"cp4kavdtn3ocp7h","time_elapsed":52572,"trial_index":9,"trial_type":"audio-keyboard-response"},{"internal_node_id":"0.0-4.2-1.2","key_press":71,"rt":819,"stimulus":"jspsych-6-2/examples/sound/speech_green.mp3","subject":"cp4kavdtn3ocp7h","time_elapsed":53900,"trial_index":10,"trial_type":"audio-keyboard-response"},{"internal_node_id":"0.0-4.3-0.3","key_press":66,"rt":871,"stimulus":"jspsych-6-2/examples/sound/speech_blue.mp3","subject":"cp4kavdtn3ocp7h","time_elapsed":55272,"trial_index":11,"trial_type":"audio-keyboard-response"},{"internal_node_id":"0.0-4.3-1.3","key_press":78,"rt":4040,"stimulus":"jspsych-6-2/examples/sound/speech_green.mp3","subject":"cp4kavdtn3ocp7h","time_elapsed":59818,"trial_index":12,"trial_type":"audio-keyboard-response"},{"age_group":"8-18","button_pressed":"0","correct":0,"fullscreen":true,"gender":"F","internal_node_id":"0.0-5.0-0.0-0.0","language":"Non-English","phase":"Sex","rt":9831.990000002406,"stimulus":"<audio src=\"audio/selected_audio_files/0778364155.wav\" id = \"clip_11bTsimane0778364155\"></audio><button id=\"audio_button_11bTsimane0778364155\" onclick=\"ChangeColour(audio_button_11bTsimane0778364155); window.which_clicked = UpdateClicked(this.id,window.which_clicked);window.which_clicked = EnableButtons(window.which_clicked); PlaySound(clip_11bTsimane0778364155);\" class=\"jspsych-btn\" style=\"background-color: white; height:50px;width:100px\">Clip 1</button><audio src=\"audio/selected_audio_files/0778277690.wav\" id = \"clip_11bTsimane0778277690\"></audio><button id=\"audio_button_11bTsimane0778277690\" onclick=\"ChangeColour(audio_button_11bTsimane0778277690); window.which_clicked = UpdateClicked(this.id,window.which_clicked);window.which_clicked = EnableButtons(window.which_clicked); PlaySound(clip_11bTsimane0778277690);\" class=\"jspsych-btn\" style=\"background-color: white; height:50px;width:100px\">Clip 2</button><audio src=\"audio/selected_audio_files/0123414696.wav\" id = \"clip_11bTsimane0123414696\"></audio><button id=\"audio_button_11bTsimane0123414696\" onclick=\"ChangeColour(audio_button_11bTsimane0123414696); window.which_clicked = UpdateClicked(this.id,window.which_clicked);window.which_clicked = EnableButtons(window.which_clicked); PlaySound(clip_11bTsimane0123414696);\" class=\"jspsych-btn\" style=\"background-color: white; height:50px;width:100px\">Clip 3</button><audio src=\"audio/selected_audio_files/0278210215.wav\" id = \"clip_11bTsimane0278210215\"></audio><button id=\"audio_button_11bTsimane0278210215\" onclick=\"ChangeColour(audio_button_11bTsimane0278210215); window.which_clicked = UpdateClicked(this.id,window.which_clicked);window.which_clicked = EnableButtons(window.which_clicked); PlaySound(clip_11bTsimane0278210215);\" class=\"jspsych-btn\" style=\"background-color: white; height:50px;width:100px\">Clip 4</button><audio src=\"audio/selected_audio_files/0681560033.wav\" id = \"clip_11bTsimane0681560033\"></audio><button id=\"audio_button_11bTsimane0681560033\" onclick=\"ChangeColour(audio_button_11bTsimane0681560033); window.which_clicked = UpdateClicked(this.id,window.which_clicked);window.which_clicked = EnableButtons(window.which_clicked); PlaySound(clip_11bTsimane0681560033);\" class=\"jspsych-btn\" style=\"background-color: white; height:50px;width:100px\">Clip 5</button><audio src=\"audio/selected_audio_files/0368085798.wav\" id = \"clip_11bTsimane0368085798\"></audio><button id=\"audio_button_11bTsimane0368085798\" onclick=\"ChangeColour(audio_button_11bTsimane0368085798); window.which_clicked = UpdateClicked(this.id,window.which_clicked);window.which_clicked = EnableButtons(window.which_clicked); PlaySound(clip_11bTsimane0368085798);\" class=\"jspsych-btn\" style=\"background-color: white; height:50px;width:100px\">Clip 6</button><audio src=\"audio/selected_audio_files/0786335650.wav\" id = \"clip_11bTsimane0786335650\"></audio><button id=\"audio_button_11bTsimane0786335650\" onclick=\"ChangeColour(audio_button_11bTsimane0786335650); window.which_clicked = UpdateClicked(this.id,window.which_clicked);window.which_clicked = EnableButtons(window.which_clicked); PlaySound(clip_11bTsimane0786335650);\" class=\"jspsych-btn\" style=\"background-color: white; height:50px;width:100px\">Clip 7</button><audio src=\"audio/selected_audio_files/0149206079.wav\" id = \"clip_11bTsimane0149206079\"></audio><button id=\"audio_button_11bTsimane0149206079\" onclick=\"ChangeColour(audio_button_11bTsimane0149206079); window.which_clicked = UpdateClicked(this.id,window.which_clicked);window.which_clicked = EnableButtons(window.which_clicked); PlaySound(clip_11bTsimane0149206079);\" class=\"jspsych-btn\" style=\"background-color: white; height:50px;width:100px\">Clip 8</button><audio src=\"audio/selected_audio_files/0738367782.wav\" id = \"clip_11bTsimane0738367782\"></audio><button id=\"audio_button_11bTsimane0738367782\" onclick=\"ChangeColour(audio_button_11bTsimane0738367782); window.which_clicked = UpdateClicked(this.id,window.which_clicked);window.which_clicked = EnableButtons(window.which_clicked); PlaySound(clip_11bTsimane0738367782);\" class=\"jspsych-btn\" style=\"background-color: white; height:50px;width:100px\">Clip 9</button><audio src=\"audio/selected_audio_files/0397616096.wav\" id = \"clip_11bTsimane0397616096\"></audio><button id=\"audio_button_11bTsimane0397616096\" onclick=\"ChangeColour(audio_button_11bTsimane0397616096); window.which_clicked = UpdateClicked(this.id,window.which_clicked);window.which_clicked = EnableButtons(window.which_clicked); PlaySound(clip_11bTsimane0397616096);\" class=\"jspsych-btn\" style=\"background-color: white; height:50px;width:100px\">Clip 10</button>","subject":"cp4kavdtn3ocp7h","time_elapsed":70159,"trial_index":13,"trial_type":"html-button-response","unique_id":"11bTsimane"},{"age_group":"19-36","button_pressed":"1","correct":0,"fullscreen":true,"gender":"M","internal_node_id":"0.0-5.0-1.0-0.0","language":"English","phase":"Language","rt":10558.689999998023,"stimulus":"<audio src=\"audio/selected_audio_files/0617697660.wav\" id = \"clip_11Seedlings0617697660\"></audio><button id=\"audio_button_11Seedlings0617697660\" onclick=\"ChangeColour(audio_button_11Seedlings0617697660); window.which_clicked = UpdateClicked(this.id,window.which_clicked);window.which_clicked = EnableButtons(window.which_clicked); PlaySound(clip_11Seedlings0617697660);\" class=\"jspsych-btn\" style=\"background-color: white; height:50px;width:100px\">Clip 1</button><audio src=\"audio/selected_audio_files/0965888736.wav\" id = \"clip_11Seedlings0965888736\"></audio><button id=\"audio_button_11Seedlings0965888736\" onclick=\"ChangeColour(audio_button_11Seedlings0965888736); window.which_clicked = UpdateClicked(this.id,window.which_clicked);window.which_clicked = EnableButtons(window.which_clicked); PlaySound(clip_11Seedlings0965888736);\" class=\"jspsych-btn\" style=\"background-color: white; height:50px;width:100px\">Clip 2</button><audio src=\"audio/selected_audio_files/0431667623.wav\" id = \"clip_11Seedlings0431667623\"></audio><button id=\"audio_button_11Seedlings0431667623\" onclick=\"ChangeColour(audio_button_11Seedlings0431667623); window.which_clicked = UpdateClicked(this.id,window.which_clicked);window.which_clicked = EnableButtons(window.which_clicked); PlaySound(clip_11Seedlings0431667623);\" class=\"jspsych-btn\" style=\"background-color: white; height:50px;width:100px\">Clip 3</button><audio src=\"audio/selected_audio_files/0130118234.wav\" id = \"clip_11Seedlings0130118234\"></audio><button id=\"audio_button_11Seedlings0130118234\" onclick=\"ChangeColour(audio_button_11Seedlings0130118234); window.which_clicked = UpdateClicked(this.id,window.which_clicked);window.which_clicked = EnableButtons(window.which_clicked); PlaySound(clip_11Seedlings0130118234);\" class=\"jspsych-btn\" style=\"background-color: white; height:50px;width:100px\">Clip 4</button><audio src=\"audio/selected_audio_files/0466549774.wav\" id = \"clip_11Seedlings0466549774\"></audio><button id=\"audio_button_11Seedlings0466549774\" onclick=\"ChangeColour(audio_button_11Seedlings0466549774); window.which_clicked = UpdateClicked(this.id,window.which_clicked);window.which_clicked = EnableButtons(window.which_clicked); PlaySound(clip_11Seedlings0466549774);\" class=\"jspsych-btn\" style=\"background-color: white; height:50px;width:100px\">Clip 5</button><audio src=\"audio/selected_audio_files/0676881411.wav\" id = \"clip_11Seedlings0676881411\"></audio><button id=\"audio_button_11Seedlings0676881411\" onclick=\"ChangeColour(audio_button_11Seedlings0676881411); window.which_clicked = UpdateClicked(this.id,window.which_clicked);window.which_clicked = EnableButtons(window.which_clicked); PlaySound(clip_11Seedlings0676881411);\" class=\"jspsych-btn\" style=\"background-color: white; height:50px;width:100px\">Clip 6</button><audio src=\"audio/selected_audio_files/0758980385.wav\" id = \"clip_11Seedlings0758980385\"></audio><button id=\"audio_button_11Seedlings0758980385\" onclick=\"ChangeColour(audio_button_11Seedlings0758980385); window.which_clicked = UpdateClicked(this.id,window.which_clicked);window.which_clicked = EnableButtons(window.which_clicked); PlaySound(clip_11Seedlings0758980385);\" class=\"jspsych-btn\" style=\"background-color: white; height:50px;width:100px\">Clip 7</button><audio src=\"audio/selected_audio_files/0528092097.wav\" id = \"clip_11Seedlings0528092097\"></audio><button id=\"audio_button_11Seedlings0528092097\" onclick=\"ChangeColour(audio_button_11Seedlings0528092097); window.which_clicked = UpdateClicked(this.id,window.which_clicked);window.which_clicked = EnableButtons(window.which_clicked); PlaySound(clip_11Seedlings0528092097);\" class=\"jspsych-btn\" style=\"background-color: white; height:50px;width:100px\">Clip 8</button><audio src=\"audio/selected_audio_files/0694178830.wav\" id = \"clip_11Seedlings0694178830\"></audio><button id=\"audio_button_11Seedlings0694178830\" onclick=\"ChangeColour(audio_button_11Seedlings0694178830); window.which_clicked = UpdateClicked(this.id,window.which_clicked);window.which_clicked = EnableButtons(window.which_clicked); PlaySound(clip_11Seedlings0694178830);\" class=\"jspsych-btn\" style=\"background-color: white; height:50px;width:100px\">Clip 9</button><audio src=\"audio/selected_audio_files/0608611414.wav\" id = \"clip_11Seedlings0608611414\"></audio><button id=\"audio_button_11Seedlings0608611414\" onclick=\"ChangeColour(audio_button_11Seedlings0608611414); window.which_clicked = UpdateClicked(this.id,window.which_clicked);window.which_clicked = EnableButtons(window.which_clicked); PlaySound(clip_11Seedlings0608611414);\" class=\"jspsych-btn\" style=\"background-color: white; height:50px;width:100px\">Clip 10</button>","subject":"cp4kavdtn3ocp7h","time_elapsed":80723,"trial_index":14,"trial_type":"html-button-response","unique_id":"11Seedlings"},{"age_group":"19-36","button_pressed":"2","correct":1,"fullscreen":true,"gender":"M","internal_node_id":"0.0-5.0-2.0-0.0","language":"English","phase":"Age","rt":9040.085000000545,"stimulus":"<audio src=\"audio/selected_audio_files/0617697660.wav\" id = \"clip_11Seedlings0617697660\"></audio><button id=\"audio_button_11Seedlings0617697660\" onclick=\"ChangeColour(audio_button_11Seedlings0617697660); window.which_clicked = UpdateClicked(this.id,window.which_clicked);window.which_clicked = EnableButtons(window.which_clicked); PlaySound(clip_11Seedlings0617697660);\" class=\"jspsych-btn\" style=\"background-color: white; height:50px;width:100px\">Clip 1</button><audio src=\"audio/selected_audio_files/0965888736.wav\" id = \"clip_11Seedlings0965888736\"></audio><button id=\"audio_button_11Seedlings0965888736\" onclick=\"ChangeColour(audio_button_11Seedlings0965888736); window.which_clicked = UpdateClicked(this.id,window.which_clicked);window.which_clicked = EnableButtons(window.which_clicked); PlaySound(clip_11Seedlings0965888736);\" class=\"jspsych-btn\" style=\"background-color: white; height:50px;width:100px\">Clip 2</button><audio src=\"audio/selected_audio_files/0431667623.wav\" id = \"clip_11Seedlings0431667623\"></audio><button id=\"audio_button_11Seedlings0431667623\" onclick=\"ChangeColour(audio_button_11Seedlings0431667623); window.which_clicked = UpdateClicked(this.id,window.which_clicked);window.which_clicked = EnableButtons(window.which_clicked); PlaySound(clip_11Seedlings0431667623);\" class=\"jspsych-btn\" style=\"background-color: white; height:50px;width:100px\">Clip 3</button><audio src=\"audio/selected_audio_files/0130118234.wav\" id = \"clip_11Seedlings0130118234\"></audio><button id=\"audio_button_11Seedlings0130118234\" onclick=\"ChangeColour(audio_button_11Seedlings0130118234); window.which_clicked = UpdateClicked(this.id,window.which_clicked);window.which_clicked = EnableButtons(window.which_clicked); PlaySound(clip_11Seedlings0130118234);\" class=\"jspsych-btn\" style=\"background-color: white; height:50px;width:100px\">Clip 4</button><audio src=\"audio/selected_audio_files/0466549774.wav\" id = \"clip_11Seedlings0466549774\"></audio><button id=\"audio_button_11Seedlings0466549774\" onclick=\"ChangeColour(audio_button_11Seedlings0466549774); window.which_clicked = UpdateClicked(this.id,window.which_clicked);window.which_clicked = EnableButtons(window.which_clicked); PlaySound(clip_11Seedlings0466549774);\" class=\"jspsych-btn\" style=\"background-color: white; height:50px;width:100px\">Clip 5</button><audio src=\"audio/selected_audio_files/0676881411.wav\" id = \"clip_11Seedlings0676881411\"></audio><button id=\"audio_button_11Seedlings0676881411\" onclick=\"ChangeColour(audio_button_11Seedlings0676881411); window.which_clicked = UpdateClicked(this.id,window.which_clicked);window.which_clicked = EnableButtons(window.which_clicked); PlaySound(clip_11Seedlings0676881411);\" class=\"jspsych-btn\" style=\"background-color: white; height:50px;width:100px\">Clip 6</button><audio src=\"audio/selected_audio_files/0758980385.wav\" id = \"clip_11Seedlings0758980385\"></audio><button id=\"audio_button_11Seedlings0758980385\" onclick=\"ChangeColour(audio_button_11Seedlings0758980385); window.which_clicked = UpdateClicked(this.id,window.which_clicked);window.which_clicked = EnableButtons(window.which_clicked); PlaySound(clip_11Seedlings0758980385);\" class=\"jspsych-btn\" style=\"background-color: white; height:50px;width:100px\">Clip 7</button><audio src=\"audio/selected_audio_files/0528092097.wav\" id = \"clip_11Seedlings0528092097\"></audio><button id=\"audio_button_11Seedlings0528092097\" onclick=\"ChangeColour(audio_button_11Seedlings0528092097); window.which_clicked = UpdateClicked(this.id,window.which_clicked);window.which_clicked = EnableButtons(window.which_clicked); PlaySound(clip_11Seedlings0528092097);\" class=\"jspsych-btn\" style=\"background-color: white; height:50px;width:100px\">Clip 8</button><audio src=\"audio/selected_audio_files/0694178830.wav\" id = \"clip_11Seedlings0694178830\"></audio><button id=\"audio_button_11Seedlings0694178830\" onclick=\"ChangeColour(audio_button_11Seedlings0694178830); window.which_clicked = UpdateClicked(this.id,window.which_clicked);window.which_clicked = EnableButtons(window.which_clicked); PlaySound(clip_11Seedlings0694178830);\" class=\"jspsych-btn\" style=\"background-color: white; height:50px;width:100px\">Clip 9</button><audio src=\"audio/selected_audio_files/0608611414.wav\" id = \"clip_11Seedlings0608611414\"></audio><button id=\"audio_button_11Seedlings0608611414\" onclick=\"ChangeColour(audio_button_11Seedlings0608611414); window.which_clicked = UpdateClicked(this.id,window.which_clicked);window.which_clicked = EnableButtons(window.which_clicked); PlaySound(clip_11Seedlings0608611414);\" class=\"jspsych-btn\" style=\"background-color: white; height:50px;width:100px\">Clip 10</button>","subject":"cp4kavdtn3ocp7h","time_elapsed":89768,"trial_index":15,"trial_type":"html-button-response","unique_id":"11Seedlings"},{"fullscreen":true,"internal_node_id":"0.0-6.0-0.0-0.0","phase":"Survey","responses":"{\"Childcare\":\"0\"}","rt":3058.179999999993,"subject":"cp4kavdtn3ocp7h","time_elapsed":92827,"trial_index":16,"trial_type":"survey-text"},{"fullscreen":true,"internal_node_id":"0.0-6.0-1.0-0.0","phase":"Survey","responses":"{\"Caregiver\":\"0\"}","rt":2912.285000002157,"subject":"cp4kavdtn3ocp7h","time_elapsed":95741,"trial_index":17,"trial_type":"survey-text"},{"fullscreen":true,"internal_node_id":"0.0-6.0-2.0-0.0","phase":"Survey","responses":"{\"Par_Age\":\"88\"}","rt":4791.084999997111,"subject":"cp4kavdtn3ocp7h","time_elapsed":100534,"trial_index":18,"trial_type":"survey-text"},{"fullscreen":true,"internal_node_id":"0.0-6.0-3.0","phase":"Survey","responses":"{\"Gender_Q\":\"Female\",\"other_gender_fill_in\":\"\"}","rt":3194.2549999985204,"subject":"cp4kavdtn3ocp7h","time_elapsed":103730,"trial_index":19,"trial_type":"survey-html-form"},{"fullscreen":true,"internal_node_id":"0.0-6.0-4.0","phase":"Survey","responses":"{\"Country_Q\":\"Canada\",\"other_country_fill_in\":\"\"}","rt":2946.5500000005704,"subject":"cp4kavdtn3ocp7h","time_elapsed":106677,"trial_index":20,"trial_type":"survey-html-form"},{"fullscreen":true,"internal_node_id":"0.0-6.0-5.0","phase":"Survey","question_order":"[0]","responses":"{\"Normal_hearing\":\"Yes\"}","rt":2271.469999999681,"subject":"cp4kavdtn3ocp7h","time_elapsed":108950,"trial_index":21,"trial_type":"survey-multi-choice"},{"fullscreen":true,"internal_node_id":"0.0-6.0-6.0","phase":"Survey","question_order":"[0]","responses":"{\"Engl_first_lang\":\"Yes\"}","rt":3045.849999998609,"subject":"cp4kavdtn3ocp7h","time_elapsed":111999,"trial_index":22,"trial_type":"survey-multi-choice"},{"fullscreen":true,"internal_node_id":"0.0-6.0-7.0","phase":"Survey","question_order":"[0]","responses":"{\"Know_corp_lang\":[]}","rt":6802.580000003218,"subject":"cp4kavdtn3ocp7h","time_elapsed":118805,"trial_index":23,"trial_type":"survey-multi-select"},{"fullscreen":true,"internal_node_id":"0.0-6.0-8.0","phase":"Survey","question_order":"[0]","responses":"{\"monolingual\":\"Yes\"}","rt":3259.36499999807,"subject":"cp4kavdtn3ocp7h","time_elapsed":122068,"trial_index":24,"trial_type":"survey-multi-choice"},{"internal_node_id":"0.0-7.0","subject":"cp4kavdtn3ocp7h","success":true,"time_elapsed":123075,"trial_index":25,"trial_type":"fullscreen"}]},"dch6hlm89onatec":{"data":[{"internal_node_id":"0.0-0.0","phase":"Consent","rt":3800.9349999483675,"subject":"dch6hlm89onatec","time_elapsed":3811,"trial_index":0,"trial_type":"external-html","url":"forms/consent.html"},{"internal_node_id":"0.0-1.0","key_press":32,"phase":"Welcome","rt":2037.6649999525398,"stimulus":"Welcome to the experiment. This experiment should take no longer than 30 minutes. Press any key to begin.","subject":"dch6hlm89onatec","time_elapsed":5863,"trial_index":1,"trial_type":"html-keyboard-response"},{"internal_node_id":"0.0-2.0","subject":"dch6hlm89onatec","success":true,"time_elapsed":10249,"trial_index":2,"trial_type":"fullscreen"},{"fullscreen":true,"internal_node_id":"0.0-3.0-0.0","key_press":77,"phase":"Instructions","rt":1004.6899998560548,"stimulus":"<p>Please read these instructions carefully.</p><p><b>Turn off all background audio</b> and <b>use headphones</b> for the experiment</b></p><p>In this experiment, you will be listening to sounds made by babies between the ages of 0-36 months. Your task will be to try and identify characteristics of the baby making those sounds (age, sex, familial language). You will respond by selecting the corresponding button when presented. Please make these judgements based on your initial impressions. Also, when prompted to provide a word, respond by typing in the word 'puppy'. When presented with audio buttons, you must listen to all audio clips before responding and if there are multiple audio clips they are guaranteed to be from the same child.</p><p>Press any key to begin.</p>","subject":"dch6hlm89onatec","time_elapsed":11255,"trial_index":3,"trial_type":"html-keyboard-response"},{"fullscreen":true,"internal_node_id":"0.0-3.0-1.0","phase":"Attention_Check","responses":"{\"Attention_check\":\"puppy\"}","rt":3667.7200000267476,"subject":"dch6hlm89onatec","time_elapsed":15935,"trial_index":4,"trial_type":"survey-text"},{"internal_node_id":"0.0-4.0-0.0","key_press":66,"rt":17309,"stimulus":"jspsych-6-2/examples/sound/speech_blue.mp3","subject":"dch6hlm89onatec","time_elapsed":34490,"trial_index":5,"trial_type":"audio-keyboard-response"},{"internal_node_id":"0.0-4.0-1.0","key_press":78,"rt":3491,"stimulus":"jspsych-6-2/examples/sound/speech_green.mp3","subject":"dch6hlm89onatec","time_elapsed":38482,"trial_index":6,"trial_type":"audio-keyboard-response"},{"age_group":"8-18","button_pressed":"1","correct":1,"fullscreen":true,"gender":"F","internal_node_id":"0.0-5.0-0.0-0.0","language":"Non-English","phase":"Sex","rt":48774.40500003286,"stimulus":"<audio src=\"audio/selected_audio_files/0778364155.wav\" id = \"clip_11bTsimane0778364155\"></audio><button id=\"audio_button_11bTsimane0778364155\" onclick=\"ChangeColour(audio_button_11bTsimane0778364155); window.which_clicked = UpdateClicked(this.id,window.which_clicked);window.which_clicked = EnableButtons(window.which_clicked); PlaySound(clip_11bTsimane0778364155);\" class=\"jspsych-btn\" style=\"background-color: white; height:50px;width:100px\">Clip 1</button><audio src=\"audio/selected_audio_files/0778277690.wav\" id = \"clip_11bTsimane0778277690\"></audio><button id=\"audio_button_11bTsimane0778277690\" onclick=\"ChangeColour(audio_button_11bTsimane0778277690); window.which_clicked = UpdateClicked(this.id,window.which_clicked);window.which_clicked = EnableButtons(window.which_clicked); PlaySound(clip_11bTsimane0778277690);\" class=\"jspsych-btn\" style=\"background-color: white; height:50px;width:100px\">Clip 2</button><audio src=\"audio/selected_audio_files/0123414696.wav\" id = \"clip_11bTsimane0123414696\"></audio><button id=\"audio_button_11bTsimane0123414696\" onclick=\"ChangeColour(audio_button_11bTsimane0123414696); window.which_clicked = UpdateClicked(this.id,window.which_clicked);window.which_clicked = EnableButtons(window.which_clicked); PlaySound(clip_11bTsimane0123414696);\" class=\"jspsych-btn\" style=\"background-color: white; height:50px;width:100px\">Clip 3</button><audio src=\"audio/selected_audio_files/0278210215.wav\" id = \"clip_11bTsimane0278210215\"></audio><button id=\"audio_button_11bTsimane0278210215\" onclick=\"ChangeColour(audio_button_11bTsimane0278210215); window.which_clicked = UpdateClicked(this.id,window.which_clicked);window.which_clicked = EnableButtons(window.which_clicked); PlaySound(clip_11bTsimane0278210215);\" class=\"jspsych-btn\" style=\"background-color: white; height:50px;width:100px\">Clip 4</button><audio src=\"audio/selected_audio_files/0681560033.wav\" id = \"clip_11bTsimane0681560033\"></audio><button id=\"audio_button_11bTsimane0681560033\" onclick=\"ChangeColour(audio_button_11bTsimane0681560033); window.which_clicked = UpdateClicked(this.id,window.which_clicked);window.which_clicked = EnableButtons(window.which_clicked); PlaySound(clip_11bTsimane0681560033);\" class=\"jspsych-btn\" style=\"background-color: white; height:50px;width:100px\">Clip 5</button><audio src=\"audio/selected_audio_files/0368085798.wav\" id = \"clip_11bTsimane0368085798\"></audio><button id=\"audio_button_11bTsimane0368085798\" onclick=\"ChangeColour(audio_button_11bTsimane0368085798); window.which_clicked = UpdateClicked(this.id,window.which_clicked);window.which_clicked = EnableButtons(window.which_clicked); PlaySound(clip_11bTsimane0368085798);\" class=\"jspsych-btn\" style=\"background-color: white; height:50px;width:100px\">Clip 6</button><audio src=\"audio/selected_audio_files/0786335650.wav\" id = \"clip_11bTsimane0786335650\"></audio><button id=\"audio_button_11bTsimane0786335650\" onclick=\"ChangeColour(audio_button_11bTsimane0786335650); window.which_clicked = UpdateClicked(this.id,window.which_clicked);window.which_clicked = EnableButtons(window.which_clicked); PlaySound(clip_11bTsimane0786335650);\" class=\"jspsych-btn\" style=\"background-color: white; height:50px;width:100px\">Clip 7</button><audio src=\"audio/selected_audio_files/0149206079.wav\" id = \"clip_11bTsimane0149206079\"></audio><button id=\"audio_button_11bTsimane0149206079\" onclick=\"ChangeColour(audio_button_11bTsimane0149206079); window.which_clicked = UpdateClicked(this.id,window.which_clicked);window.which_clicked = EnableButtons(window.which_clicked); PlaySound(clip_11bTsimane0149206079);\" class=\"jspsych-btn\" style=\"background-color: white; height:50px;width:100px\">Clip 8</button><audio src=\"audio/selected_audio_files/0738367782.wav\" id = \"clip_11bTsimane0738367782\"></audio><button id=\"audio_button_11bTsimane0738367782\" onclick=\"ChangeColour(audio_button_11bTsimane0738367782); window.which_clicked = UpdateClicked(this.id,window.which_clicked);window.which_clicked = EnableButtons(window.which_clicked); PlaySound(clip_11bTsimane0738367782);\" class=\"jspsych-btn\" style=\"background-color: white; height:50px;width:100px\">Clip 9</button><audio src=\"audio/selected_audio_files/0397616096.wav\" id = \"clip_11bTsimane0397616096\"></audio><button id=\"audio_button_11bTsimane0397616096\" onclick=\"ChangeColour(audio_button_11bTsimane0397616096); window.which_clicked = UpdateClicked(this.id,window.which_clicked);window.which_clicked = EnableButtons(window.which_clicked); PlaySound(clip_11bTsimane0397616096);\" class=\"jspsych-btn\" style=\"background-color: white; height:50px;width:100px\">Clip 10</button>","subject":"dch6hlm89onatec","time_elapsed":87781,"trial_index":7,"trial_type":"html-button-response","unique_id":"11bTsimane"},{"age_group":"19-36","button_pressed":"0","correct":1,"fullscreen":true,"gender":"M","internal_node_id":"0.0-5.0-1.0-0.0","language":"English","phase":"Language","rt":17376.954999985173,"stimulus":"<audio src=\"audio/selected_audio_files/0617697660.wav\" id = \"clip_11Seedlings0617697660\"></audio><button id=\"audio_button_11Seedlings0617697660\" onclick=\"ChangeColour(audio_button_11Seedlings0617697660); window.which_clicked = UpdateClicked(this.id,window.which_clicked);window.which_clicked = EnableButtons(window.which_clicked); PlaySound(clip_11Seedlings0617697660);\" class=\"jspsych-btn\" style=\"background-color: white; height:50px;width:100px\">Clip 1</button><audio src=\"audio/selected_audio_files/0965888736.wav\" id = \"clip_11Seedlings0965888736\"></audio><button id=\"audio_button_11Seedlings0965888736\" onclick=\"ChangeColour(audio_button_11Seedlings0965888736); window.which_clicked = UpdateClicked(this.id,window.which_clicked);window.which_clicked = EnableButtons(window.which_clicked); PlaySound(clip_11Seedlings0965888736);\" class=\"jspsych-btn\" style=\"background-color: white; height:50px;width:100px\">Clip 2</button><audio src=\"audio/selected_audio_files/0431667623.wav\" id = \"clip_11Seedlings0431667623\"></audio><button id=\"audio_button_11Seedlings0431667623\" onclick=\"ChangeColour(audio_button_11Seedlings0431667623); window.which_clicked = UpdateClicked(this.id,window.which_clicked);window.which_clicked = EnableButtons(window.which_clicked); PlaySound(clip_11Seedlings0431667623);\" class=\"jspsych-btn\" style=\"background-color: white; height:50px;width:100px\">Clip 3</button><audio src=\"audio/selected_audio_files/0130118234.wav\" id = \"clip_11Seedlings0130118234\"></audio><button id=\"audio_button_11Seedlings0130118234\" onclick=\"ChangeColour(audio_button_11Seedlings0130118234); window.which_clicked = UpdateClicked(this.id,window.which_clicked);window.which_clicked = EnableButtons(window.which_clicked); PlaySound(clip_11Seedlings0130118234);\" class=\"jspsych-btn\" style=\"background-color: white; height:50px;width:100px\">Clip 4</button><audio src=\"audio/selected_audio_files/0466549774.wav\" id = \"clip_11Seedlings0466549774\"></audio><button id=\"audio_button_11Seedlings0466549774\" onclick=\"ChangeColour(audio_button_11Seedlings0466549774); window.which_clicked = UpdateClicked(this.id,window.which_clicked);window.which_clicked = EnableButtons(window.which_clicked); PlaySound(clip_11Seedlings0466549774);\" class=\"jspsych-btn\" style=\"background-color: white; height:50px;width:100px\">Clip 5</button><audio src=\"audio/selected_audio_files/0676881411.wav\" id = \"clip_11Seedlings0676881411\"></audio><button id=\"audio_button_11Seedlings0676881411\" onclick=\"ChangeColour(audio_button_11Seedlings0676881411); window.which_clicked = UpdateClicked(this.id,window.which_clicked);window.which_clicked = EnableButtons(window.which_clicked); PlaySound(clip_11Seedlings0676881411);\" class=\"jspsych-btn\" style=\"background-color: white; height:50px;width:100px\">Clip 6</button><audio src=\"audio/selected_audio_files/0758980385.wav\" id = \"clip_11Seedlings0758980385\"></audio><button id=\"audio_button_11Seedlings0758980385\" onclick=\"ChangeColour(audio_button_11Seedlings0758980385); window.which_clicked = UpdateClicked(this.id,window.which_clicked);window.which_clicked = EnableButtons(window.which_clicked); PlaySound(clip_11Seedlings0758980385);\" class=\"jspsych-btn\" style=\"background-color: white; height:50px;width:100px\">Clip 7</button><audio src=\"audio/selected_audio_files/0528092097.wav\" id = \"clip_11Seedlings0528092097\"></audio><button id=\"audio_button_11Seedlings0528092097\" onclick=\"ChangeColour(audio_button_11Seedlings0528092097); window.which_clicked = UpdateClicked(this.id,window.which_clicked);window.which_clicked = EnableButtons(window.which_clicked); PlaySound(clip_11Seedlings0528092097);\" class=\"jspsych-btn\" style=\"background-color: white; height:50px;width:100px\">Clip 8</button><audio src=\"audio/selected_audio_files/0694178830.wav\" id = \"clip_11Seedlings0694178830\"></audio><button id=\"audio_button_11Seedlings0694178830\" onclick=\"ChangeColour(audio_button_11Seedlings0694178830); window.which_clicked = UpdateClicked(this.id,window.which_clicked);window.which_clicked = EnableButtons(window.which_clicked); PlaySound(clip_11Seedlings0694178830);\" class=\"jspsych-btn\" style=\"background-color: white; height:50px;width:100px\">Clip 9</button><audio src=\"audio/selected_audio_files/0608611414.wav\" id = \"clip_11Seedlings0608611414\"></audio><button id=\"audio_button_11Seedlings0608611414\" onclick=\"ChangeColour(audio_button_11Seedlings0608611414); window.which_clicked = UpdateClicked(this.id,window.which_clicked);window.which_clicked = EnableButtons(window.which_clicked); PlaySound(clip_11Seedlings0608611414);\" class=\"jspsych-btn\" style=\"background-color: white; height:50px;width:100px\">Clip 10</button>","subject":"dch6hlm89onatec","time_elapsed":105164,"trial_index":8,"trial_type":"html-button-response","unique_id":"11Seedlings"},{"age_group":"19-36","button_pressed":"2","correct":1,"fullscreen":true,"gender":"M","internal_node_id":"0.0-5.0-2.0-0.0","language":"English","phase":"Age","rt":14665.5449999962,"stimulus":"<audio src=\"audio/selected_audio_files/0617697660.wav\" id = \"clip_11Seedlings0617697660\"></audio><button id=\"audio_button_11Seedlings0617697660\" onclick=\"ChangeColour(audio_button_11Seedlings0617697660); window.which_clicked = UpdateClicked(this.id,window.which_clicked);window.which_clicked = EnableButtons(window.which_clicked); PlaySound(clip_11Seedlings0617697660);\" class=\"jspsych-btn\" style=\"background-color: white; height:50px;width:100px\">Clip 1</button><audio src=\"audio/selected_audio_files/0965888736.wav\" id = \"clip_11Seedlings0965888736\"></audio><button id=\"audio_button_11Seedlings0965888736\" onclick=\"ChangeColour(audio_button_11Seedlings0965888736); window.which_clicked = UpdateClicked(this.id,window.which_clicked);window.which_clicked = EnableButtons(window.which_clicked); PlaySound(clip_11Seedlings0965888736);\" class=\"jspsych-btn\" style=\"background-color: white; height:50px;width:100px\">Clip 2</button><audio src=\"audio/selected_audio_files/0431667623.wav\" id = \"clip_11Seedlings0431667623\"></audio><button id=\"audio_button_11Seedlings0431667623\" onclick=\"ChangeColour(audio_button_11Seedlings0431667623); window.which_clicked = UpdateClicked(this.id,window.which_clicked);window.which_clicked = EnableButtons(window.which_clicked); PlaySound(clip_11Seedlings0431667623);\" class=\"jspsych-btn\" style=\"background-color: white; height:50px;width:100px\">Clip 3</button><audio src=\"audio/selected_audio_files/0130118234.wav\" id = \"clip_11Seedlings0130118234\"></audio><button id=\"audio_button_11Seedlings0130118234\" onclick=\"ChangeColour(audio_button_11Seedlings0130118234); window.which_clicked = UpdateClicked(this.id,window.which_clicked);window.which_clicked = EnableButtons(window.which_clicked); PlaySound(clip_11Seedlings0130118234);\" class=\"jspsych-btn\" style=\"background-color: white; height:50px;width:100px\">Clip 4</button><audio src=\"audio/selected_audio_files/0466549774.wav\" id = \"clip_11Seedlings0466549774\"></audio><button id=\"audio_button_11Seedlings0466549774\" onclick=\"ChangeColour(audio_button_11Seedlings0466549774); window.which_clicked = UpdateClicked(this.id,window.which_clicked);window.which_clicked = EnableButtons(window.which_clicked); PlaySound(clip_11Seedlings0466549774);\" class=\"jspsych-btn\" style=\"background-color: white; height:50px;width:100px\">Clip 5</button><audio src=\"audio/selected_audio_files/0676881411.wav\" id = \"clip_11Seedlings0676881411\"></audio><button id=\"audio_button_11Seedlings0676881411\" onclick=\"ChangeColour(audio_button_11Seedlings0676881411); window.which_clicked = UpdateClicked(this.id,window.which_clicked);window.which_clicked = EnableButtons(window.which_clicked); PlaySound(clip_11Seedlings0676881411);\" class=\"jspsych-btn\" style=\"background-color: white; height:50px;width:100px\">Clip 6</button><audio src=\"audio/selected_audio_files/0758980385.wav\" id = \"clip_11Seedlings0758980385\"></audio><button id=\"audio_button_11Seedlings0758980385\" onclick=\"ChangeColour(audio_button_11Seedlings0758980385); window.which_clicked = UpdateClicked(this.id,window.which_clicked);window.which_clicked = EnableButtons(window.which_clicked); PlaySound(clip_11Seedlings0758980385);\" class=\"jspsych-btn\" style=\"background-color: white; height:50px;width:100px\">Clip 7</button><audio src=\"audio/selected_audio_files/0528092097.wav\" id = \"clip_11Seedlings0528092097\"></audio><button id=\"audio_button_11Seedlings0528092097\" onclick=\"ChangeColour(audio_button_11Seedlings0528092097); window.which_clicked = UpdateClicked(this.id,window.which_clicked);window.which_clicked = EnableButtons(window.which_clicked); PlaySound(clip_11Seedlings0528092097);\" class=\"jspsych-btn\" style=\"background-color: white; height:50px;width:100px\">Clip 8</button><audio src=\"audio/selected_audio_files/0694178830.wav\" id = \"clip_11Seedlings0694178830\"></audio><button id=\"audio_button_11Seedlings0694178830\" onclick=\"ChangeColour(audio_button_11Seedlings0694178830); window.which_clicked = UpdateClicked(this.id,window.which_clicked);window.which_clicked = EnableButtons(window.which_clicked); PlaySound(clip_11Seedlings0694178830);\" class=\"jspsych-btn\" style=\"background-color: white; height:50px;width:100px\">Clip 9</button><audio src=\"audio/selected_audio_files/0608611414.wav\" id = \"clip_11Seedlings0608611414\"></audio><button id=\"audio_button_11Seedlings0608611414\" onclick=\"ChangeColour(audio_button_11Seedlings0608611414); window.which_clicked = UpdateClicked(this.id,window.which_clicked);window.which_clicked = EnableButtons(window.which_clicked); PlaySound(clip_11Seedlings0608611414);\" class=\"jspsych-btn\" style=\"background-color: white; height:50px;width:100px\">Clip 10</button>","subject":"dch6hlm89onatec","time_elapsed":119837,"trial_index":9,"trial_type":"html-button-response","unique_id":"11Seedlings"},{"fullscreen":true,"internal_node_id":"0.0-6.0-0.0-0.0","phase":"Survey","responses":"{\"Childcare\":\"0\"}","rt":10282.535000005737,"subject":"dch6hlm89onatec","time_elapsed":130122,"trial_index":10,"trial_type":"survey-text"},{"fullscreen":true,"internal_node_id":"0.0-6.0-1.0-0.0","phase":"Survey","responses":"{\"Caregiver\":\"pat\"}","rt":4462.670000037178,"subject":"dch6hlm89onatec","time_elapsed":134587,"trial_index":11,"trial_type":"survey-text"},{"fullscreen":false,"internal_node_id":"0.0-6.0-1.1-0.1","phase":"Survey","responses":"{\"Caregiver\":\"1.5\"}","rt":12299.025000073016,"subject":"dch6hlm89onatec","time_elapsed":152177,"trial_index":12,"trial_type":"survey-text"},{"fullscreen":false,"internal_node_id":"0.0-6.0-2.0-0.0","phase":"Survey","responses":"{\"Par_Age\":\"4\"}","rt":7555.775000015274,"subject":"dch6hlm89onatec","time_elapsed":159735,"trial_index":13,"trial_type":"survey-text"},{"fullscreen":false,"internal_node_id":"0.0-6.0-3.0","phase":"Survey","responses":"{\"Gender_Q\":\"Female\",\"other_gender_fill_in\":\"4\"}","rt":14878.314999863505,"subject":"dch6hlm89onatec","time_elapsed":174615,"trial_index":14,"trial_type":"survey-html-form"},{"fullscreen":false,"internal_node_id":"0.0-6.0-4.0","phase":"Survey","responses":"{\"Country_Q\":\"USA\",\"other_country_fill_in\":\"\"}","rt":10830.210000043735,"subject":"dch6hlm89onatec","time_elapsed":185447,"trial_index":15,"trial_type":"survey-html-form"},{"fullscreen":false,"internal_node_id":"0.0-6.0-5.0","phase":"Survey","question_order":"[0]","responses":"{\"Normal_hearing\":\"Yes\"}","rt":5515.7149999868125,"subject":"dch6hlm89onatec","time_elapsed":190964,"trial_index":16,"trial_type":"survey-multi-choice"},{"fullscreen":false,"internal_node_id":"0.0-6.0-6.0","phase":"Survey","question_order":"[0]","responses":"{\"Engl_first_lang\":\"Yes\"}","rt":3037.095000036061,"subject":"dch6hlm89onatec","time_elapsed":194017,"trial_index":17,"trial_type":"survey-multi-choice"},{"fullscreen":false,"internal_node_id":"0.0-6.0-7.0","phase":"Survey","question_order":"[0]","responses":"{\"Know_corp_lang\":[]}","rt":239.61499985307455,"subject":"dch6hlm89onatec","time_elapsed":194275,"trial_index":18,"trial_type":"survey-multi-select"},{"fullscreen":false,"internal_node_id":"0.0-6.0-8.0","phase":"Survey","question_order":"[0]","responses":"{\"monolingual\":\"Yes\"}","rt":6675.524999853224,"subject":"dch6hlm89onatec","time_elapsed":200967,"trial_index":19,"trial_type":"survey-multi-choice"},{"internal_node_id":"0.0-7.0","subject":"dch6hlm89onatec","success":true,"time_elapsed":201984,"trial_index":20,"trial_type":"fullscreen"}]},"kb1bpjs0glqnk0m":{"data":[{"internal_node_id":"0.0-0.0","phase":"Consent","rt":1865.7400000374764,"subject":"kb1bpjs0glqnk0m","time_elapsed":2082,"trial_index":0,"trial_type":"external-html","url":"forms/consent.html"},{"internal_node_id":"0.0-1.0","key_press":68,"phase":"Welcome","rt":1354.174999985844,"stimulus":"Welcome to the experiment. This experiment should take no longer than 30 minutes. Press any key to begin.","subject":"kb1bpjs0glqnk0m","time_elapsed":3450,"trial_index":1,"trial_type":"html-keyboard-response"},{"internal_node_id":"0.0-2.0","subject":"kb1bpjs0glqnk0m","success":true,"time_elapsed":20187,"trial_index":2,"trial_type":"fullscreen"},{"fullscreen":true,"internal_node_id":"0.0-3.0-0.0","key_press":68,"phase":"Instructions","rt":18285.08500009775,"stimulus":"<p>Please read these instructions carefully.</p><p>In this experiment, you will be listening to sounds made by babies between the ages of 0-36 months. Your task will be to try and identify characteristics of the baby making those sounds (age, sex, familial language). You will respond by selecting the corresponding button when presented. Please make these judgements based on your initial impressions. Also, when prompted to provide a word, respond by typing in the word 'puppy'. When presented with audio buttons, you must listen to all audio clips before responding and if there are multiple audio clips they are guaranteed to be from the same child.</p><p>Press any key to begin.</p>","subject":"kb1bpjs0glqnk0m","time_elapsed":38474,"trial_index":3,"trial_type":"html-keyboard-response"},{"fullscreen":true,"internal_node_id":"0.0-3.0-1.0","phase":"Attention_Check","responses":"{\"Attention_check\":\"puppy\"}","rt":1245.0400001835078,"subject":"kb1bpjs0glqnk0m","time_elapsed":40723,"trial_index":4,"trial_type":"survey-text"},{"internal_node_id":"0.0-4.0-0.0","key_press":66,"rt":1549,"stimulus":"jspsych-6-2/examples/sound/speech_blue.mp3","subject":"kb1bpjs0glqnk0m","time_elapsed":43578,"trial_index":5,"trial_type":"audio-keyboard-response"},{"internal_node_id":"0.0-4.0-1.0","key_press":78,"rt":1120,"stimulus":"jspsych-6-2/examples/sound/speech_green.mp3","subject":"kb1bpjs0glqnk0m","time_elapsed":45202,"trial_index":6,"trial_type":"audio-keyboard-response"},{"age_group":"8-18","button_pressed":"0","correct":0,"fullscreen":true,"gender":"F","internal_node_id":"0.0-5.0-0.0-0.0","language":"Non-English","phase":"Sex","rt":19258.304999908432,"stimulus":"<audio src=\"audio/selected_audio_files/0778364155.wav\" id = \"clip_11bTsimane0778364155\"></audio><button id=\"audio_button_11bTsimane0778364155\" onclick=\"ChangeColour(audio_button_11bTsimane0778364155); window.which_clicked = UpdateClicked(this.id,window.which_clicked);window.which_clicked = EnableButtons(window.which_clicked); PlaySound(clip_11bTsimane0778364155);\" class=\"jspsych-btn\" style=\"background-color: white; height:50px;width:100px\">Clip 1</button><audio src=\"audio/selected_audio_files/0778277690.wav\" id = \"clip_11bTsimane0778277690\"></audio><button id=\"audio_button_11bTsimane0778277690\" onclick=\"ChangeColour(audio_button_11bTsimane0778277690); window.which_clicked = UpdateClicked(this.id,window.which_clicked);window.which_clicked = EnableButtons(window.which_clicked); PlaySound(clip_11bTsimane0778277690);\" class=\"jspsych-btn\" style=\"background-color: white; height:50px;width:100px\">Clip 2</button><audio src=\"audio/selected_audio_files/0123414696.wav\" id = \"clip_11bTsimane0123414696\"></audio><button id=\"audio_button_11bTsimane0123414696\" onclick=\"ChangeColour(audio_button_11bTsimane0123414696); window.which_clicked = UpdateClicked(this.id,window.which_clicked);window.which_clicked = EnableButtons(window.which_clicked); PlaySound(clip_11bTsimane0123414696);\" class=\"jspsych-btn\" style=\"background-color: white; height:50px;width:100px\">Clip 3</button><audio src=\"audio/selected_audio_files/0278210215.wav\" id = \"clip_11bTsimane0278210215\"></audio><button id=\"audio_button_11bTsimane0278210215\" onclick=\"ChangeColour(audio_button_11bTsimane0278210215); window.which_clicked = UpdateClicked(this.id,window.which_clicked);window.which_clicked = EnableButtons(window.which_clicked); PlaySound(clip_11bTsimane0278210215);\" class=\"jspsych-btn\" style=\"background-color: white; height:50px;width:100px\">Clip 4</button><audio src=\"audio/selected_audio_files/0681560033.wav\" id = \"clip_11bTsimane0681560033\"></audio><button id=\"audio_button_11bTsimane0681560033\" onclick=\"ChangeColour(audio_button_11bTsimane0681560033); window.which_clicked = UpdateClicked(this.id,window.which_clicked);window.which_clicked = EnableButtons(window.which_clicked); PlaySound(clip_11bTsimane0681560033);\" class=\"jspsych-btn\" style=\"background-color: white; height:50px;width:100px\">Clip 5</button><audio src=\"audio/selected_audio_files/0368085798.wav\" id = \"clip_11bTsimane0368085798\"></audio><button id=\"audio_button_11bTsimane0368085798\" onclick=\"ChangeColour(audio_button_11bTsimane0368085798); window.which_clicked = UpdateClicked(this.id,window.which_clicked);window.which_clicked = EnableButtons(window.which_clicked); PlaySound(clip_11bTsimane0368085798);\" class=\"jspsych-btn\" style=\"background-color: white; height:50px;width:100px\">Clip 6</button><audio src=\"audio/selected_audio_files/0786335650.wav\" id = \"clip_11bTsimane0786335650\"></audio><button id=\"audio_button_11bTsimane0786335650\" onclick=\"ChangeColour(audio_button_11bTsimane0786335650); window.which_clicked = UpdateClicked(this.id,window.which_clicked);window.which_clicked = EnableButtons(window.which_clicked); PlaySound(clip_11bTsimane0786335650);\" class=\"jspsych-btn\" style=\"background-color: white; height:50px;width:100px\">Clip 7</button><audio src=\"audio/selected_audio_files/0149206079.wav\" id = \"clip_11bTsimane0149206079\"></audio><button id=\"audio_button_11bTsimane0149206079\" onclick=\"ChangeColour(audio_button_11bTsimane0149206079); window.which_clicked = UpdateClicked(this.id,window.which_clicked);window.which_clicked = EnableButtons(window.which_clicked); PlaySound(clip_11bTsimane0149206079);\" class=\"jspsych-btn\" style=\"background-color: white; height:50px;width:100px\">Clip 8</button><audio src=\"audio/selected_audio_files/0738367782.wav\" id = \"clip_11bTsimane0738367782\"></audio><button id=\"audio_button_11bTsimane0738367782\" onclick=\"ChangeColour(audio_button_11bTsimane0738367782); window.which_clicked = UpdateClicked(this.id,window.which_clicked);window.which_clicked = EnableButtons(window.which_clicked); PlaySound(clip_11bTsimane0738367782);\" class=\"jspsych-btn\" style=\"background-color: white; height:50px;width:100px\">Clip 9</button><audio src=\"audio/selected_audio_files/0397616096.wav\" id = \"clip_11bTsimane0397616096\"></audio><button id=\"audio_button_11bTsimane0397616096\" onclick=\"ChangeColour(audio_button_11bTsimane0397616096); window.which_clicked = UpdateClicked(this.id,window.which_clicked);window.which_clicked = EnableButtons(window.which_clicked); PlaySound(clip_11bTsimane0397616096);\" class=\"jspsych-btn\" style=\"background-color: white; height:50px;width:100px\">Clip 10</button>","subject":"kb1bpjs0glqnk0m","time_elapsed":64971,"trial_index":7,"trial_type":"html-button-response","unique_id":"11bTsimane"},{"age_group":"19-36","button_pressed":"0","correct":1,"fullscreen":true,"gender":"M","internal_node_id":"0.0-5.0-1.0-0.0","language":"English","phase":"Language","rt":8674.929999979213,"stimulus":"<audio src=\"audio/selected_audio_files/0617697660.wav\" id = \"clip_11Seedlings0617697660\"></audio><button id=\"audio_button_11Seedlings0617697660\" onclick=\"ChangeColour(audio_button_11Seedlings0617697660); window.which_clicked = UpdateClicked(this.id,window.which_clicked);window.which_clicked = EnableButtons(window.which_clicked); PlaySound(clip_11Seedlings0617697660);\" class=\"jspsych-btn\" style=\"background-color: white; height:50px;width:100px\">Clip 1</button><audio src=\"audio/selected_audio_files/0965888736.wav\" id = \"clip_11Seedlings0965888736\"></audio><button id=\"audio_button_11Seedlings0965888736\" onclick=\"ChangeColour(audio_button_11Seedlings0965888736); window.which_clicked = UpdateClicked(this.id,window.which_clicked);window.which_clicked = EnableButtons(window.which_clicked); PlaySound(clip_11Seedlings0965888736);\" class=\"jspsych-btn\" style=\"background-color: white; height:50px;width:100px\">Clip 2</button><audio src=\"audio/selected_audio_files/0431667623.wav\" id = \"clip_11Seedlings0431667623\"></audio><button id=\"audio_button_11Seedlings0431667623\" onclick=\"ChangeColour(audio_button_11Seedlings0431667623); window.which_clicked = UpdateClicked(this.id,window.which_clicked);window.which_clicked = EnableButtons(window.which_clicked); PlaySound(clip_11Seedlings0431667623);\" class=\"jspsych-btn\" style=\"background-color: white; height:50px;width:100px\">Clip 3</button><audio src=\"audio/selected_audio_files/0130118234.wav\" id = \"clip_11Seedlings0130118234\"></audio><button id=\"audio_button_11Seedlings0130118234\" onclick=\"ChangeColour(audio_button_11Seedlings0130118234); window.which_clicked = UpdateClicked(this.id,window.which_clicked);window.which_clicked = EnableButtons(window.which_clicked); PlaySound(clip_11Seedlings0130118234);\" class=\"jspsych-btn\" style=\"background-color: white; height:50px;width:100px\">Clip 4</button><audio src=\"audio/selected_audio_files/0466549774.wav\" id = \"clip_11Seedlings0466549774\"></audio><button id=\"audio_button_11Seedlings0466549774\" onclick=\"ChangeColour(audio_button_11Seedlings0466549774); window.which_clicked = UpdateClicked(this.id,window.which_clicked);window.which_clicked = EnableButtons(window.which_clicked); PlaySound(clip_11Seedlings0466549774);\" class=\"jspsych-btn\" style=\"background-color: white; height:50px;width:100px\">Clip 5</button><audio src=\"audio/selected_audio_files/0676881411.wav\" id = \"clip_11Seedlings0676881411\"></audio><button id=\"audio_button_11Seedlings0676881411\" onclick=\"ChangeColour(audio_button_11Seedlings0676881411); window.which_clicked = UpdateClicked(this.id,window.which_clicked);window.which_clicked = EnableButtons(window.which_clicked); PlaySound(clip_11Seedlings0676881411);\" class=\"jspsych-btn\" style=\"background-color: white; height:50px;width:100px\">Clip 6</button><audio src=\"audio/selected_audio_files/0758980385.wav\" id = \"clip_11Seedlings0758980385\"></audio><button id=\"audio_button_11Seedlings0758980385\" onclick=\"ChangeColour(audio_button_11Seedlings0758980385); window.which_clicked = UpdateClicked(this.id,window.which_clicked);window.which_clicked = EnableButtons(window.which_clicked); PlaySound(clip_11Seedlings0758980385);\" class=\"jspsych-btn\" style=\"background-color: white; height:50px;width:100px\">Clip 7</button><audio src=\"audio/selected_audio_files/0528092097.wav\" id = \"clip_11Seedlings0528092097\"></audio><button id=\"audio_button_11Seedlings0528092097\" onclick=\"ChangeColour(audio_button_11Seedlings0528092097); window.which_clicked = UpdateClicked(this.id,window.which_clicked);window.which_clicked = EnableButtons(window.which_clicked); PlaySound(clip_11Seedlings0528092097);\" class=\"jspsych-btn\" style=\"background-color: white; height:50px;width:100px\">Clip 8</button><audio src=\"audio/selected_audio_files/0694178830.wav\" id = \"clip_11Seedlings0694178830\"></audio><button id=\"audio_button_11Seedlings0694178830\" onclick=\"ChangeColour(audio_button_11Seedlings0694178830); window.which_clicked = UpdateClicked(this.id,window.which_clicked);window.which_clicked = EnableButtons(window.which_clicked); PlaySound(clip_11Seedlings0694178830);\" class=\"jspsych-btn\" style=\"background-color: white; height:50px;width:100px\">Clip 9</button><audio src=\"audio/selected_audio_files/0608611414.wav\" id = \"clip_11Seedlings0608611414\"></audio><button id=\"audio_button_11Seedlings0608611414\" onclick=\"ChangeColour(audio_button_11Seedlings0608611414); window.which_clicked = UpdateClicked(this.id,window.which_clicked);window.which_clicked = EnableButtons(window.which_clicked); PlaySound(clip_11Seedlings0608611414);\" class=\"jspsych-btn\" style=\"background-color: white; height:50px;width:100px\">Clip 10</button>","subject":"kb1bpjs0glqnk0m","time_elapsed":73651,"trial_index":8,"trial_type":"html-button-response","unique_id":"11Seedlings"},{"age_group":"19-36","button_pressed":"0","correct":0,"fullscreen":true,"gender":"M","internal_node_id":"0.0-5.0-2.0-0.0","language":"English","phase":"Age","rt":6898.8749999552965,"stimulus":"<audio src=\"audio/selected_audio_files/0617697660.wav\" id = \"clip_11Seedlings0617697660\"></audio><button id=\"audio_button_11Seedlings0617697660\" onclick=\"ChangeColour(audio_button_11Seedlings0617697660); window.which_clicked = UpdateClicked(this.id,window.which_clicked);window.which_clicked = EnableButtons(window.which_clicked); PlaySound(clip_11Seedlings0617697660);\" class=\"jspsych-btn\" style=\"background-color: white; height:50px;width:100px\">Clip 1</button><audio src=\"audio/selected_audio_files/0965888736.wav\" id = \"clip_11Seedlings0965888736\"></audio><button id=\"audio_button_11Seedlings0965888736\" onclick=\"ChangeColour(audio_button_11Seedlings0965888736); window.which_clicked = UpdateClicked(this.id,window.which_clicked);window.which_clicked = EnableButtons(window.which_clicked); PlaySound(clip_11Seedlings0965888736);\" class=\"jspsych-btn\" style=\"background-color: white; height:50px;width:100px\">Clip 2</button><audio src=\"audio/selected_audio_fi