{"0fqjq8yae91cw2l":{"data":[{"StartTime":1584375660206,"internal_node_id":"0.0-0.0","phase":"Consent","rt":25548.185000006924,"subject":"0fqjq8yae91cw2l","time_elapsed":25637,"trial_index":0,"trial_type":"external-html","url":"forms/consent.html"},{"StartTime":1584375660206,"internal_node_id":"0.0-1.0","key_press":32,"phase":"Welcome","rt":5052.685000002384,"stimulus":"<p>Welcome to the experiment. This experiment should take no longer than 30 minutes.</p> <p>Press any key to begin.</p>","subject":"0fqjq8yae91cw2l","time_elapsed":30695,"trial_index":1,"trial_type":"html-keyboard-response"},{"StartTime":1584375660206,"internal_node_id":"0.0-2.0","subject":"0fqjq8yae91cw2l","success":true,"time_elapsed":98204,"trial_index":2,"trial_type":"fullscreen"},{"StartTime":1584375660206,"fullscreen":true,"internal_node_id":"0.0-3.0-0.0","key_press":174,"phase":"Instructions","rt":12329.974999993283,"stimulus":"<p>Please read these instructions carefully.</p><p>In this experiment, you will be listening to sounds made by babies between the ages of 0-36 months. Your task will be to try and identify characteristics of the baby making those sounds (age, sex, familial language). You will respond by selecting the corresponding button when presented. Please make these judgements based on your initial impressions. Also, when prompted to provide a word, respond by typing in the word 'puppy'. When presented with audio buttons, you must listen to all audio clips before responding and if there are multiple audio clips they are guaranteed to be from the same child.</p><p>Press any key to begin.</p>","subject":"0fqjq8yae91cw2l","time_elapsed":110536,"trial_index":3,"trial_type":"html-keyboard-response"},{"StartTime":1584375660206,"fullscreen":true,"internal_node_id":"0.0-3.0-1.0","phase":"Attention_Check","responses":"{\"Attention_check\":\"Hope\"}","rt":23461.794999995618,"subject":"0fqjq8yae91cw2l","time_elapsed":135008,"trial_index":4,"trial_type":"survey-text"},{"StartTime":1584375660206,"fullscreen":true,"internal_node_id":"0.0-3.1-0.1","key_press":32,"phase":"Instructions","rt":26746.5200000006,"stimulus":"<p>Please read these instructions carefully.</p><p>In this experiment, you will be listening to sounds made by babies between the ages of 0-36 months. Your task will be to try and identify characteristics of the baby making those sounds (age, sex, familial language). You will respond by selecting the corresponding button when presented. Please make these judgements based on your initial impressions. Also, when prompted to provide a word, respond by typing in the word 'puppy'. When presented with audio buttons, you must listen to all audio clips before responding and if there are multiple audio clips they are guaranteed to be from the same child.</p><p>Press any key to begin.</p>","subject":"0fqjq8yae91cw2l","time_elapsed":162763,"trial_index":5,"trial_type":"html-keyboard-response"},{"StartTime":1584375660206,"fullscreen":true,"internal_node_id":"0.0-3.1-1.1","phase":"Attention_Check","responses":"{\"Attention_check\":\"puppy\"}","rt":1809.835000000021,"subject":"0fqjq8yae91cw2l","time_elapsed":165579,"trial_index":6,"trial_type":"survey-text"},{"StartTime":1584375660206,"internal_node_id":"0.0-4.0-0.0","key_press":66,"phase":"audio_check","rt":6789,"stimulus":"jspsych-6-2/examples/sound/speech_blue.mp3","subject":"0fqjq8yae91cw2l","time_elapsed":174061,"trial_index":7,"trial_type":"audio-keyboard-response"},{"StartTime":1584375660206,"internal_node_id":"0.0-4.0-1.0","key_press":78,"phase":"audio_check","rt":4160,"stimulus":"jspsych-6-2/examples/sound/speech_green.mp3","subject":"0fqjq8yae91cw2l","time_elapsed":178732,"trial_index":8,"trial_type":"audio-keyboard-response"},{"StartTime":1584375660206,"age_group":"8-18","button_pressed":"0","correct":0,"fullscreen":true,"gender":"F","internal_node_id":"0.0-5.0-0.0-0.0","language":"Non-English","phase":"Sex","rt":16267.654999996012,"stimulus":"<audio src=\"audio/selected_audio_files/clips_to_use/0740408284.wav\" id = \"clip_F23CasillasYeli0740408284\"></audio><button id=\"audio_button_F23CasillasYeli0740408284\" onclick=\"ChangeColour(audio_button_F23CasillasYeli0740408284); window.which_clicked = UpdateClicked(this.id,window.which_clicked);window.which_clicked = EnableButtons(window.which_clicked); PlaySound(clip_F23CasillasYeli0740408284);\" class=\"jspsych-btn\" style=\"background-color: white;\">Clip 1</button><audio src=\"audio/selected_audio_files/clips_to_use/0544394254.wav\" id = \"clip_F23CasillasYeli0544394254\"></audio><button id=\"audio_button_F23CasillasYeli0544394254\" onclick=\"ChangeColour(audio_button_F23CasillasYeli0544394254); window.which_clicked = UpdateClicked(this.id,window.which_clicked);window.which_clicked = EnableButtons(window.which_clicked); PlaySound(clip_F23CasillasYeli0544394254);\" class=\"jspsych-btn\" style=\"background-color: white;\">Clip 2</button><audio src=\"audio/selected_audio_files/clips_to_use/0591622775.wav\" id = \"clip_F23CasillasYeli0591622775\"></audio><button id=\"audio_button_F23CasillasYeli0591622775\" onclick=\"ChangeColour(audio_button_F23CasillasYeli0591622775); window.which_clicked = UpdateClicked(this.id,window.which_clicked);window.which_clicked = EnableButtons(window.which_clicked); PlaySound(clip_F23CasillasYeli0591622775);\" class=\"jspsych-btn\" style=\"background-color: white;\">Clip 3</button><audio src=\"audio/selected_audio_files/clips_to_use/0905839491.wav\" id = \"clip_F23CasillasYeli0905839491\"></audio><button id=\"audio_button_F23CasillasYeli0905839491\" onclick=\"ChangeColour(audio_button_F23CasillasYeli0905839491); window.which_clicked = UpdateClicked(this.id,window.which_clicked);window.which_clicked = EnableButtons(window.which_clicked); PlaySound(clip_F23CasillasYeli0905839491);\" class=\"jspsych-btn\" style=\"background-color: white;\">Clip 4</button><audio src=\"audio/selected_audio_files/clips_to_use/0977260121.wav\" id = \"clip_F23CasillasYeli0977260121\"></audio><button id=\"audio_button_F23CasillasYeli0977260121\" onclick=\"ChangeColour(audio_button_F23CasillasYeli0977260121); window.which_clicked = UpdateClicked(this.id,window.which_clicked);window.which_clicked = EnableButtons(window.which_clicked); PlaySound(clip_F23CasillasYeli0977260121);\" class=\"jspsych-btn\" style=\"background-color: white;\">Clip 5</button><br><audio src=\"audio/selected_audio_files/clips_to_use/0632958970.wav\" id = \"clip_F23CasillasYeli0632958970\"></audio><button id=\"audio_button_F23CasillasYeli0632958970\" onclick=\"ChangeColour(audio_button_F23CasillasYeli0632958970); window.which_clicked = UpdateClicked(this.id,window.which_clicked);window.which_clicked = EnableButtons(window.which_clicked); PlaySound(clip_F23CasillasYeli0632958970);\" class=\"jspsych-btn\" style=\"background-color: white;\">Clip 6</button><audio src=\"audio/selected_audio_files/clips_to_use/0538231831.wav\" id = \"clip_F23CasillasYeli0538231831\"></audio><button id=\"audio_button_F23CasillasYeli0538231831\" onclick=\"ChangeColour(audio_button_F23CasillasYeli0538231831); window.which_clicked = UpdateClicked(this.id,window.which_clicked);window.which_clicked = EnableButtons(window.which_clicked); PlaySound(clip_F23CasillasYeli0538231831);\" class=\"jspsych-btn\" style=\"background-color: white;\">Clip 7</button><audio src=\"audio/selected_audio_files/clips_to_use/0928307784.wav\" id = \"clip_F23CasillasYeli0928307784\"></audio><button id=\"audio_button_F23CasillasYeli0928307784\" onclick=\"ChangeColour(audio_button_F23CasillasYeli0928307784); window.which_clicked = UpdateClicked(this.id,window.which_clicked);window.which_clicked = EnableButtons(window.which_clicked); PlaySound(clip_F23CasillasYeli0928307784);\" class=\"jspsych-btn\" style=\"background-color: white;\">Clip 8</button><audio src=\"audio/selected_audio_files/clips_to_use/0134740949.wav\" id = \"clip_F23CasillasYeli0134740949\"></audio><button id=\"audio_button_F23CasillasYeli0134740949\" onclick=\"ChangeColour(audio_button_F23CasillasYeli0134740949); window.which_clicked = UpdateClicked(this.id,window.which_clicked);window.which_clicked = EnableButtons(window.which_clicked); PlaySound(clip_F23CasillasYeli0134740949);\" class=\"jspsych-btn\" style=\"background-color: white;\">Clip 9</button><audio src=\"audio/selected_audio_files/clips_to_use/0302513143.wav\" id = \"clip_F23CasillasYeli0302513143\"></audio><button id=\"audio_button_F23CasillasYeli0302513143\" onclick=\"ChangeColour(audio_button_F23CasillasYeli0302513143); window.which_clicked = UpdateClicked(this.id,window.which_clicked);window.which_clicked = EnableButtons(window.which_clicked); PlaySound(clip_F23CasillasYeli0302513143);\" class=\"jspsych-btn\" style=\"background-color: white;\">Clip 10</button>","subject":"0fqjq8yae91cw2l","time_elapsed":195514,"trial_index":9,"trial_type":"html-button-response","unique_id":"F23CasillasYeli"},{"StartTime":1584375660206,"age_group":"8-18","button_pressed":"0","correct":1,"fullscreen":true,"gender":"M","internal_node_id":"0.0-5.0-0.0-0.1","language":"Non-English","phase":"Sex","rt":43770.01500000188,"stimulus":"<audio src=\"audio/selected_audio_files/clips_to_use/0675181716.wav\" id = \"clip_8787Tseltal0675181716\"></audio><button id=\"audio_button_8787Tseltal0675181716\" onclick=\"ChangeColour(audio_button_8787Tseltal0675181716); window.which_clicked = UpdateClicked(this.id,window.which_clicked);window.which_clicked = EnableButtons(window.which_clicked); PlaySound(clip_8787Tseltal0675181716);\" class=\"jspsych-btn\" style=\"background-color: white;\">Clip 1</button><audio src=\"audio/selected_audio_files/clips_to_use/0737425469.wav\" id = \"clip_8787Tseltal0737425469\"></audio><button id=\"audio_button_8787Tseltal0737425469\" onclick=\"ChangeColour(audio_button_8787Tseltal0737425469); window.which_clicked = UpdateClicked(this.id,window.which_clicked);window.which_clicked = EnableButtons(window.which_clicked); PlaySound(clip_8787Tseltal0737425469);\" class=\"jspsych-btn\" style=\"background-color: white;\">Clip 2</button><audio src=\"audio/selected_audio_files/clips_to_use/0700522612.wav\" id = \"clip_8787Tseltal0700522612\"></audio><button id=\"audio_button_8787Tseltal0700522612\" onclick=\"ChangeColour(audio_button_8787Tseltal0700522612); window.which_clicked = UpdateClicked(this.id,window.which_clicked);window.which_clicked = EnableButtons(window.which_clicked); PlaySound(clip_8787Tseltal0700522612);\" class=\"jspsych-btn\" style=\"background-color: white;\">Clip 3</button><audio src=\"audio/selected_audio_files/clips_to_use/0118632629.wav\" id = \"clip_8787Tseltal0118632629\"></audio><button id=\"audio_button_8787Tseltal0118632629\" onclick=\"ChangeColour(audio_button_8787Tseltal0118632629); window.which_clicked = UpdateClicked(this.id,window.which_clicked);window.which_clicked = EnableButtons(window.which_clicked); PlaySound(clip_8787Tseltal0118632629);\" class=\"jspsych-btn\" style=\"background-color: white;\">Clip 4</button><audio src=\"audio/selected_audio_files/clips_to_use/0764717491.wav\" id = \"clip_8787Tseltal0764717491\"></audio><button id=\"audio_button_8787Tseltal0764717491\" onclick=\"ChangeColour(audio_button_8787Tseltal0764717491); window.which_clicked = UpdateClicked(this.id,window.which_clicked);window.which_clicked = EnableButtons(window.which_clicked); PlaySound(clip_8787Tseltal0764717491);\" class=\"jspsych-btn\" style=\"background-color: white;\">Clip 5</button><br><audio src=\"audio/selected_audio_files/clips_to_use/0225709263.wav\" id = \"clip_8787Tseltal0225709263\"></audio><button id=\"audio_button_8787Tseltal0225709263\" onclick=\"ChangeColour(audio_button_8787Tseltal0225709263); window.which_clicked = UpdateClicked(this.id,window.which_clicked);window.which_clicked = EnableButtons(window.which_clicked); PlaySound(clip_8787Tseltal0225709263);\" class=\"jspsych-btn\" style=\"background-color: white;\">Clip 6</button><audio src=\"audio/selected_audio_files/clips_to_use/0228528061.wav\" id = \"clip_8787Tseltal0228528061\"></audio><button id=\"audio_button_8787Tseltal0228528061\" onclick=\"ChangeColour(audio_button_8787Tseltal0228528061); window.which_clicked = UpdateClicked(this.id,window.which_clicked);window.which_clicked = EnableButtons(window.which_clicked); PlaySound(clip_8787Tseltal0228528061);\" class=\"jspsych-btn\" style=\"background-color: white;\">Clip 7</button><audio src=\"audio/selected_audio_files/clips_to_use/0106877811.wav\" id = \"clip_8787Tseltal0106877811\"></audio><button id=\"audio_button_8787Tseltal0106877811\" onclick=\"ChangeColour(audio_button_8787Tseltal0106877811); window.which_clicked = UpdateClicked(this.id,window.which_clicked);window.which_clicked = EnableButtons(window.which_clicked); PlaySound(clip_8787Tseltal0106877811);\" class=\"jspsych-btn\" style=\"background-color: white;\">Clip 8</button><audio src=\"audio/selected_audio_files/clips_to_use/0886810441.wav\" id = \"clip_8787Tseltal0886810441\"></audio><button id=\"audio_button_8787Tseltal0886810441\" onclick=\"ChangeColour(audio_button_8787Tseltal0886810441); window.which_clicked = UpdateClicked(this.id,window.which_clicked);window.which_clicked = EnableButtons(window.which_clicked); PlaySound(clip_8787Tseltal0886810441);\" class=\"jspsych-btn\" style=\"background-color: white;\">Clip 9</button><audio src=\"audio/selected_audio_files/clips_to_use/0173482820.wav\" id = \"clip_8787Tseltal0173482820\"></audio><button id=\"audio_button_8787Tseltal0173482820\" onclick=\"ChangeColour(audio_button_8787Tseltal0173482820); window.which_clicked = UpdateClicked(this.id,window.which_clicked);window.which_clicked = EnableButtons(window.which_clicked); PlaySound(clip_8787Tseltal0173482820);\" class=\"jspsych-btn\" style=\"background-color: white;\">Clip 10</button>","subject":"0fqjq8yae91cw2l","time_elapsed":239303,"trial_index":10,"trial_type":"html-button-response","unique_id":"8787Tseltal"},{"StartTime":1584375660206,"age_group":"8-18","button_pressed":"1","correct":1,"fullscreen":true,"gender":"F","internal_node_id":"0.0-5.0-0.0-0.2","language":"Non-English","phase":"Sex","rt":21312.144999996235,"stimulus":"<audio src=\"audio/selected_audio_files/clips_to_use/0804078336.wav\" id = \"clip_14Tsimane0804078336\"></audio><button id=\"audio_button_14Tsimane0804078336\" onclick=\"ChangeColour(audio_button_14Tsimane0804078336); window.which_clicked = UpdateClicked(this.id,window.which_clicked);window.which_clicked = EnableButtons(window.which_clicked); PlaySound(clip_14Tsimane0804078336);\" class=\"jspsych-btn\" style=\"background-color: white;\">Clip 1</button><audio src=\"audio/selected_audio_files/clips_to_use/0684057708.wav\" id = \"clip_14Tsimane0684057708\"></audio><button id=\"audio_button_14Tsimane0684057708\" onclick=\"ChangeColour(audio_button_14Tsimane0684057708); window.which_clicked = UpdateClicked(this.id,window.which_clicked);window.which_clicked = EnableButtons(window.which_clicked); PlaySound(clip_14Tsimane0684057708);\" class=\"jspsych-btn\" style=\"background-color: white;\">Clip 2</button><audio src=\"audio/selected_audio_files/clips_to_use/0209628572.wav\" id = \"clip_14Tsimane0209628572\"></audio><button id=\"audio_button_14Tsimane0209628572\" onclick=\"ChangeColour(audio_button_14Tsimane0209628572); window.which_clicked = UpdateClicked(this.id,window.which_clicked);window.which_clicked = EnableButtons(window.which_clicked); PlaySound(clip_14Tsimane0209628572);\" class=\"jspsych-btn\" style=\"background-color: white;\">Clip 3</button><audio src=\"audio/selected_audio_files/clips_to_use/0610647144.wav\" id = \"clip_14Tsimane0610647144\"></audio><button id=\"audio_button_14Tsimane0610647144\" onclick=\"ChangeColour(audio_button_14Tsimane0610647144); window.which_clicked = UpdateClicked(this.id,window.which_clicked);window.which_clicked = EnableButtons(window.which_clicked); PlaySound(clip_14Tsimane0610647144);\" class=\"jspsych-btn\" style=\"background-color: white;\">Clip 4</button><audio src=\"audio/selected_audio_files/clips_to_use/0582577167.wav\" id = \"clip_14Tsimane0582577167\"></audio><button id=\"audio_button_14Tsimane0582577167\" onclick=\"ChangeColour(audio_button_14Tsimane0582577167); window.which_clicked = UpdateClicked(this.id,window.which_clicked);window.which_clicked = EnableButtons(window.which_clicked); PlaySound(clip_14Tsimane0582577167);\" class=\"jspsych-btn\" style=\"background-color: white;\">Clip 5</button><br><audio src=\"audio/selected_audio_files/clips_to_use/0763669354.wav\" id = \"clip_14Tsimane0763669354\"></audio><button id=\"audio_button_14Tsimane0763669354\" onclick=\"ChangeColour(audio_button_14Tsimane0763669354); window.which_clicked = UpdateClicked(this.id,window.which_clicked);window.which_clicked = EnableButtons(window.which_clicked); PlaySound(clip_14Tsimane0763669354);\" class=\"jspsych-btn\" style=\"background-color: white;\">Clip 6</button><audio src=\"audio/selected_audio_files/clips_to_use/0412007115.wav\" id = \"clip_14Tsimane0412007115\"></audio><button id=\"audio_button_14Tsimane0412007115\" onclick=\"ChangeColour(audio_button_14Tsimane0412007115); window.which_clicked = UpdateClicked(this.id,window.which_clicked);window.which_clicked = EnableButtons(window.which_clicked); PlaySound(clip_14Tsimane0412007115);\" class=\"jspsych-btn\" style=\"background-color: white;\">Clip 7</button><audio src=\"audio/selected_audio_files/clips_to_use/0283505406.wav\" id = \"clip_14Tsimane0283505406\"></audio><button id=\"audio_button_14Tsimane0283505406\" onclick=\"ChangeColour(audio_button_14Tsimane0283505406); window.which_clicked = UpdateClicked(this.id,window.which_clicked);window.which_clicked = EnableButtons(window.which_clicked); PlaySound(clip_14Tsimane0283505406);\" class=\"jspsych-btn\" style=\"background-color: white;\">Clip 8</button><audio src=\"audio/selected_audio_files/clips_to_use/0386427048.wav\" id = \"clip_14Tsimane0386427048\"></audio><button id=\"audio_button_14Tsimane0386427048\" onclick=\"ChangeColour(audio_button_14Tsimane0386427048); window.which_clicked = UpdateClicked(this.id,window.which_clicked);window.which_clicked = EnableButtons(window.which_clicked); PlaySound(clip_14Tsimane0386427048);\" class=\"jspsych-btn\" style=\"background-color: white;\">Clip 9</button><audio src=\"audio/selected_audio_files/clips_to_use/0137027681.wav\" id = \"clip_14Tsimane0137027681\"></audio><button id=\"audio_button_14Tsimane0137027681\" onclick=\"ChangeColour(audio_button_14Tsimane0137027681); window.which_clicked = UpdateClicked(this.id,window.which_clicked);window.which_clicked = EnableButtons(window.which_clicked); PlaySound(clip_14Tsimane0137027681);\" class=\"jspsych-btn\" style=\"background-color: white;\">Clip 10</button>","subject":"0fqjq8yae91cw2l","time_elapsed":260634,"trial_index":11,"trial_type":"html-button-response","unique_id":"14Tsimane"},{"StartTime":1584375660206,"age_group":"8-18","button_pressed":"1","correct":0,"fullscreen":true,"gender":"M","internal_node_id":"0.0-5.0-0.0-0.3","language":"Non-English","phase":"Sex","rt":19634.570000001986,"stimulus":"<audio src=\"audio/selected_audio_files/clips_to_use/0741084798.wav\" id = \"clip_F42CasillasYeli0741084798\"></audio><button id=\"audio_button_F42CasillasYeli0741084798\" onclick=\"ChangeColour(audio_button_F42CasillasYeli0741084798); window.which_clicked = UpdateClicked(this.id,window.which_clicked);window.which_clicked = EnableButtons(window.which_clicked); PlaySound(clip_F42CasillasYeli0741084798);\" class=\"jspsych-btn\" style=\"background-color: white;\">Clip 1</button><audio src=\"audio/selected_audio_files/clips_to_use/0635682222.wav\" id = \"clip_F42CasillasYeli0635682222\"></audio><button id=\"audio_button_F42CasillasYeli0635682222\" onclick=\"ChangeColour(audio_button_F42CasillasYeli0635682222); window.which_clicked = UpdateClicked(this.id,window.which_clicked);window.which_clicked = EnableButtons(window.which_clicked); PlaySound(clip_F42CasillasYeli0635682222);\" class=\"jspsych-btn\" style=\"background-color: white;\">Clip 2</button><audio src=\"audio/selected_audio_files/clips_to_use/0436478394.wav\" id = \"clip_F42CasillasYeli0436478394\"></audio><button id=\"audio_button_F42CasillasYeli0436478394\" onclick=\"ChangeColour(audio_button_F42CasillasYeli0436478394); window.which_clicked = UpdateClicked(this.id,window.which_clicked);window.which_clicked = EnableButtons(window.which_clicked); PlaySound(clip_F42CasillasYeli0436478394);\" class=\"jspsych-btn\" style=\"background-color: white;\">Clip 3</button><audio src=\"audio/selected_audio_files/clips_to_use/0786645752.wav\" id = \"clip_F42CasillasYeli0786645752\"></audio><button id=\"audio_button_F42CasillasYeli0786645752\" onclick=\"ChangeColour(audio_button_F42CasillasYeli0786645752); window.which_clicked = UpdateClicked(this.id,window.which_clicked);window.which_clicked = EnableButtons(window.which_clicked); PlaySound(clip_F42CasillasYeli0786645752);\" class=\"jspsych-btn\" style=\"background-color: white;\">Clip 4</button><audio src=\"audio/selected_audio_files/clips_to_use/0846072274.wav\" id = \"clip_F42CasillasYeli0846072274\"></audio><button id=\"audio_button_F42CasillasYeli0846072274\" onclick=\"ChangeColour(audio_button_F42CasillasYeli0846072274); window.which_clicked = UpdateClicked(this.id,window.which_clicked);window.which_clicked = EnableButtons(window.which_clicked); PlaySound(clip_F42CasillasYeli0846072274);\" class=\"jspsych-btn\" style=\"background-color: white;\">Clip 5</button><br><audio src=\"audio/selected_audio_files/clips_to_use/0161703970.wav\" id = \"clip_F42CasillasYeli0161703970\"></audio><button id=\"audio_button_F42CasillasYeli0161703970\" onclick=\"ChangeColour(audio_button_F42CasillasYeli0161703970); window.which_clicked = UpdateClicked(this.id,window.which_clicked);window.which_clicked = EnableButtons(window.which_clicked); PlaySound(clip_F42CasillasYeli0161703970);\" class=\"jspsych-btn\" style=\"background-color: white;\">Clip 6</button><audio src=\"audio/selected_audio_files/clips_to_use/0943108006.wav\" id = \"clip_F42CasillasYeli0943108006\"></audio><button id=\"audio_button_F42CasillasYeli0943108006\" onclick=\"ChangeColour(audio_button_F42CasillasYeli0943108006); window.which_clicked = UpdateClicked(this.id,window.which_clicked);window.which_clicked = EnableButtons(window.which_clicked); PlaySound(clip_F42CasillasYeli0943108006);\" class=\"jspsych-btn\" style=\"background-color: white;\">Clip 7</button><audio src=\"audio/selected_audio_files/clips_to_use/0226774126.wav\" id = \"clip_F42CasillasYeli0226774126\"></audio><button id=\"audio_button_F42CasillasYeli0226774126\" onclick=\"ChangeColour(audio_button_F42CasillasYeli0226774126); window.which_clicked = UpdateClicked(this.id,window.which_clicked);window.which_clicked = EnableButtons(window.which_clicked); PlaySound(clip_F42CasillasYeli0226774126);\" class=\"jspsych-btn\" style=\"background-color: white;\">Clip 8</button><audio src=\"audio/selected_audio_files/clips_to_use/0886525004.wav\" id = \"clip_F42CasillasYeli0886525004\"></audio><button id=\"audio_button_F42CasillasYeli0886525004\" onclick=\"ChangeColour(audio_button_F42CasillasYeli0886525004); window.which_clicked = UpdateClicked(this.id,window.which_clicked);window.which_clicked = EnableButtons(window.which_clicked); PlaySound(clip_F42CasillasYeli0886525004);\" class=\"jspsych-btn\" style=\"background-color: white;\">Clip 9</button><audio src=\"audio/selected_audio_files/clips_to_use/0175243962.wav\" id = \"clip_F42CasillasYeli0175243962\"></audio><button id=\"audio_button_F42CasillasYeli0175243962\" onclick=\"ChangeColour(audio_button_F42CasillasYeli0175243962); window.which_clicked = UpdateClicked(this.id,window.which_clicked);window.which_clicked = EnableButtons(window.which_clicked); PlaySound(clip_F42CasillasYeli0175243962);\" class=\"jspsych-btn\" style=\"background-color: white;\">Clip 10</button>","subject":"0fqjq8yae91cw2l","time_elapsed":280286,"trial_index":12,"trial_type":"html-button-response","unique_id":"F42CasillasYeli"},{"StartTime":1584375660206,"age_group":"8-18","button_pressed":"1","correct":0,"fullscreen":true,"gender":"M","internal_node_id":"0.0-5.0-0.0-0.4","language":"Non-English","phase":"Sex","rt":13162.47999999905,"stimulus":"<audio src=\"audio/selected_audio_files/clips_to_use/0858718183.wav\" id = \"clip_7326Tseltal0858718183\"></audio><button id=\"audio_button_7326Tseltal0858718183\" onclick=\"ChangeColour(audio_button_7326Tseltal0858718183); window.which_clicked = UpdateClicked(this.id,window.which_clicked);window.which_clicked = EnableButtons(window.which_clicked); PlaySound(clip_7326Tseltal0858718183);\" class=\"jspsych-btn\" style=\"background-color: white;\">Clip 1</button><audio src=\"audio/selected_audio_files/clips_to_use/0629259884.wav\" id = \"clip_7326Tseltal0629259884\"></audio><button id=\"audio_button_7326Tseltal0629259884\" onclick=\"ChangeColour(audio_button_7326Tseltal0629259884); window.which_clicked = UpdateClicked(this.id,window.which_clicked);window.which_clicked = EnableButtons(window.which_clicked); PlaySound(clip_7326Tseltal0629259884);\" class=\"jspsych-btn\" style=\"background-color: white;\">Clip 2</button><audio src=\"audio/selected_audio_files/clips_to_use/0235041003.wav\" id = \"clip_7326Tseltal0235041003\"></audio><button id=\"audio_button_7326Tseltal0235041003\" onclick=\"ChangeColour(audio_button_7326Tseltal0235041003); window.which_clicked = UpdateClicked(this.id,window.which_clicked);window.which_clicked = EnableButtons(window.which_clicked); PlaySound(clip_7326Tseltal0235041003);\" class=\"jspsych-btn\" style=\"background-color: white;\">Clip 3</button><audio src=\"audio/selected_audio_files/clips_to_use/0853477388.wav\" id = \"clip_7326Tseltal0853477388\"></audio><button id=\"audio_button_7326Tseltal0853477388\" onclick=\"ChangeColour(audio_button_7326Tseltal0853477388); window.which_clicked = UpdateClicked(this.id,window.which_clicked);window.which_clicked = EnableButtons(window.which_clicked); PlaySound(clip_7326Tseltal0853477388);\" class=\"jspsych-btn\" style=\"background-color: white;\">Clip 4</button><audio src=\"audio/selected_audio_files/clips_to_use/0979098614.wav\" id = \"clip_7326Tseltal0979098614\"></audio><button id=\"audio_button_7326Tseltal0979098614\" onclick=\"ChangeColour(audio_button_7326Tseltal0979098614); window.which_clicked = UpdateClicked(this.id,window.which_clicked);window.which_clicked = EnableButtons(window.which_clicked); PlaySound(clip_7326Tseltal0979098614);\" class=\"jspsych-btn\" style=\"background-color: white;\">Clip 5</button><br><audio src=\"audio/selected_audio_files/clips_to_use/0350074286.wav\" id = \"clip_7326Tseltal0350074286\"></audio><button id=\"audio_button_7326Tseltal0350074286\" onclick=\"ChangeColour(audio_button_7326Tseltal0350074286); window.which_clicked = UpdateClicked(this.id,window.which_clicked);window.which_clicked = EnableButtons(window.which_clicked); PlaySound(clip_7326Tseltal0350074286);\" class=\"jspsych-btn\" style=\"background-color: white;\">Clip 6</button><audio src=\"audio/selected_audio_files/clips_to_use/0530049847.wav\" id = \"clip_7326Tseltal0530049847\"></audio><button id=\"audio_button_7326Tseltal0530049847\" onclick=\"ChangeColour(audio_button_7326Tseltal0530049847); window.which_clicked = UpdateClicked(this.id,window.which_clicked);window.which_clicked = EnableButtons(window.which_clicked); PlaySound(clip_7326Tseltal0530049847);\" class=\"jspsych-btn\" style=\"background-color: white;\">Clip 7</button><audio src=\"audio/selected_audio_files/clips_to_use/0792978845.wav\" id = \"clip_7326Tseltal0792978845\"></audio><button id=\"audio_button_7326Tseltal0792978845\" onclick=\"ChangeColour(audio_button_7326Tseltal0792978845); window.which_clicked = UpdateClicked(this.id,window.which_clicked);window.which_clicked = EnableButtons(window.which_clicked); PlaySound(clip_7326Tseltal0792978845);\" class=\"jspsych-btn\" style=\"background-color: white;\">Clip 8</button><audio src=\"audio/selected_audio_files/clips_to_use/0311693651.wav\" id = \"clip_7326Tseltal0311693651\"></audio><button id=\"audio_button_7326Tseltal0311693651\" onclick=\"ChangeColour(audio_button_7326Tseltal0311693651); window.which_clicked = UpdateClicked(this.id,window.which_clicked);window.which_clicked = EnableButtons(window.which_clicked); PlaySound(clip_7326Tseltal0311693651);\" class=\"jspsych-btn\" style=\"background-color: white;\">Clip 9</button><audio src=\"audio/selected_audio_files/clips_to_use/0322097163.wav\" id = \"clip_7326Tseltal0322097163\"></audio><button id=\"audio_button_7326Tseltal0322097163\" onclick=\"ChangeColour(audio_button_7326Tseltal0322097163); window.which_clicked = UpdateClicked(this.id,window.which_clicked);window.which_clicked = EnableButtons(window.which_clicked); PlaySound(clip_7326Tseltal0322097163);\" class=\"jspsych-btn\" style=\"background-color: white;\">Clip 10</button>","subject":"0fqjq8yae91cw2l","time_elapsed":293466,"trial_index":13,"trial_type":"html-button-response","unique_id":"7326Tseltal"},{"StartTime":1584375660206,"age_group":"8-18","button_pressed":"0","correct":0,"fullscreen":true,"gender":"F","internal_node_id":"0.0-5.0-0.0-0.5","language":"Non-English","phase":"Sex","rt":15916.4399999936,"stimulus":"<audio src=\"audio/selected_audio_files/clips_to_use/0344255482.wav\" id = \"clip_11bTsimane0344255482\"></audio><button id=\"audio_button_11bTsimane0344255482\" onclick=\"ChangeColour(audio_button_11bTsimane0344255482); window.which_clicked = UpdateClicked(this.id,window.which_clicked);window.which_clicked = EnableButtons(window.which_clicked); PlaySound(clip_11bTsimane0344255482);\" class=\"jspsych-btn\" style=\"background-color: white;\">Clip 1</button><audio src=\"audio/selected_audio_files/clips_to_use/0342825870.wav\" id = \"clip_11bTsimane0342825870\"></audio><button id=\"audio_button_11bTsimane0342825870\" onclick=\"ChangeColour(audio_button_11bTsimane0342825870); window.which_clicked = UpdateClicked(this.id,window.which_clicked);window.which_clicked = EnableButtons(window.which_clicked); PlaySound(clip_11bTsimane0342825870);\" class=\"jspsych-btn\" style=\"background-color: white;\">Clip 2</button><audio src=\"audio/selected_audio_files/clips_to_use/0368085798.wav\" id = \"clip_11bTsimane0368085798\"></audio><button id=\"audio_button_11bTsimane0368085798\" onclick=\"ChangeColour(audio_button_11bTsimane0368085798); window.which_clicked = UpdateClicked(this.id,window.which_clicked);window.which_clicked = EnableButtons(window.which_clicked); PlaySound(clip_11bTsimane0368085798);\" class=\"jspsych-btn\" style=\"background-color: white;\">Clip 3</button><audio src=\"audio/selected_audio_files/clips_to_use/0786335650.wav\" id = \"clip_11bTsimane0786335650\"></audio><button id=\"audio_button_11bTsimane0786335650\" onclick=\"ChangeColour(audio_button_11bTsimane0786335650); window.which_clicked = UpdateClicked(this.id,window.which_clicked);window.which_clicked = EnableButtons(window.which_clicked); PlaySound(clip_11bTsimane0786335650);\" class=\"jspsych-btn\" style=\"background-color: white;\">Clip 4</button><audio src=\"audio/selected_audio_files/clips_to_use/0162855595.wav\" id = \"clip_11bTsimane0162855595\"></audio><button id=\"audio_button_11bTsimane0162855595\" onclick=\"ChangeColour(audio_button_11bTsimane0162855595); window.which_clicked = UpdateClicked(this.id,window.which_clicked);window.which_clicked = EnableButtons(window.which_clicked); PlaySound(clip_11bTsimane0162855595);\" class=\"jspsych-btn\" style=\"background-color: white;\">Clip 5</button><br><audio src=\"audio/selected_audio_files/clips_to_use/0681560033.wav\" id = \"clip_11bTsimane0681560033\"></audio><button id=\"audio_button_11bTsimane0681560033\" onclick=\"ChangeColour(audio_button_11bTsimane0681560033); window.which_clicked = UpdateClicked(this.id,window.which_clicked);window.which_clicked = EnableButtons(window.which_clicked); PlaySound(clip_11bTsimane0681560033);\" class=\"jspsych-btn\" style=\"background-color: white;\">Clip 6</button><audio src=\"audio/selected_audio_files/clips_to_use/0824457104.wav\" id = \"clip_11bTsimane0824457104\"></audio><button id=\"audio_button_11bTsimane0824457104\" onclick=\"ChangeColour(audio_button_11bTsimane0824457104); window.which_clicked = UpdateClicked(this.id,window.which_clicked);window.which_clicked = EnableButtons(window.which_clicked); PlaySound(clip_11bTsimane0824457104);\" class=\"jspsych-btn\" style=\"background-color: white;\">Clip 7</button><audio src=\"audio/selected_audio_files/clips_to_use/0282970727.wav\" id = \"clip_11bTsimane0282970727\"></audio><button id=\"audio_button_11bTsimane0282970727\" onclick=\"ChangeColour(audio_button_11bTsimane0282970727); window.which_clicked = UpdateClicked(this.id,window.which_clicked);window.which_clicked = EnableButtons(window.which_clicked); PlaySound(clip_11bTsimane0282970727);\" class=\"jspsych-btn\" style=\"background-color: white;\">Clip 8</button><audio src=\"audio/selected_audio_files/clips_to_use/0507847970.wav\" id = \"clip_11bTsimane0507847970\"></audio><button id=\"audio_button_11bTsimane0507847970\" onclick=\"ChangeColour(audio_button_11bTsimane0507847970); window.which_clicked = UpdateClicked(this.id,window.which_clicked);window.which_clicked = EnableButtons(window.which_clicked); PlaySound(clip_11bTsimane0507847970);\" class=\"jspsych-btn\" style=\"background-color: white;\">Clip 9</button><audio src=\"audio/selected_audio_files/clips_to_use/0516023048.wav\" id = \"clip_11bTsimane0516023048\"></audio><button id=\"audio_button_11bTsimane0516023048\" onclick=\"ChangeColour(audio_button_11bTsimane0516023048); window.which_clicked = UpdateClicked(this.id,window.which_clicked);window.which_clicked = EnableButtons(window.which_clicked); PlaySound(clip_11bTsimane0516023048);\" class=\"jspsych-btn\" style=\"background-color: white;\">Clip 10</button>","subject":"0fqjq8yae91cw2l","time_elapsed":309400,"trial_index":14,"trial_type":"html-button-response","unique_id":"11bTsimane"},{"StartTime":1584375660206,"age_group":"8-18","button_pressed":"0","correct":0,"fullscreen":true,"gender":"F","internal_node_id":"0.0-5.0-0.0-0.6","language":"Non-English","phase":"Sex","rt":13664.884999998321,"stimulus":"<audio src=\"audio/selected_audio_files/clips_to_use/0342400096.wav\" id = \"clip_33Tsimane0342400096\"></audio><button id=\"audio_button_33Tsimane0342400096\" onclick=\"ChangeColour(audio_button_33Tsimane0342400096); window.which_clicked = UpdateClicked(this.id,window.which_clicked);window.which_clicked = EnableButtons(window.which_clicked); PlaySound(clip_33Tsimane0342400096);\" class=\"jspsych-btn\" style=\"background-color: white;\">Clip 1</button><audio src=\"audio/selected_audio_files/clips_to_use/0236112949.wav\" id = \"clip_33Tsimane0236112949\"></audio><button id=\"audio_button_33Tsimane0236112949\" onclick=\"ChangeColour(audio_button_33Tsimane0236112949); window.which_clicked = UpdateClicked(this.id,window.which_clicked);window.which_clicked = EnableButtons(window.which_clicked); PlaySound(clip_33Tsimane0236112949);\" class=\"jspsych-btn\" style=\"background-color: white;\">Clip 2</button><audio src=\"audio/selected_audio_files/clips_to_use/0418327198.wav\" id = \"clip_33Tsimane0418327198\"></audio><button id=\"audio_button_33Tsimane0418327198\" onclick=\"ChangeColour(audio_button_33Tsimane0418327198); window.which_clicked = UpdateClicked(this.id,window.which_clicked);window.which_clicked = EnableButtons(window.which_clicked); PlaySound(clip_33Tsimane0418327198);\" class=\"jspsych-btn\" style=\"background-color: white;\">Clip 3</button><audio src=\"audio/selected_audio_files/clips_to_use/0901477693.wav\" id = \"clip_33Tsimane0901477693\"></audio><button id=\"audio_button_33Tsimane0901477693\" onclick=\"ChangeColour(audio_button_33Tsimane0901477693); window.which_clicked = UpdateClicked(this.id,window.which_clicked);window.which_clicked = EnableButtons(window.which_clicked); PlaySound(clip_33Tsimane0901477693);\" class=\"jspsych-btn\" style=\"background-color: white;\">Clip 4</button><audio src=\"audio/selected_audio_files/clips_to_use/0139045843.wav\" id = \"clip_33Tsimane0139045843\"></audio><button id=\"audio_button_33Tsimane0139045843\" onclick=\"ChangeColour(audio_button_33Tsimane0139045843); window.which_clicked = UpdateClicked(this.id,window.which_clicked);window.which_clicked = EnableButtons(window.which_clicked); PlaySound(clip_33Tsimane0139045843);\" class=\"jspsych-btn\" style=\"background-color: white;\">Clip 5</button><br><audio src=\"audio/selected_audio_files/clips_to_use/0664251699.wav\" id = \"clip_33Tsimane0664251699\"></audio><button id=\"audio_button_33Tsimane0664251699\" onclick=\"ChangeColour(audio_button_33Tsimane0664251699); window.which_clicked = UpdateClicked(this.id,window.which_clicked);window.which_clicked = EnableButtons(window.which_clicked); PlaySound(clip_33Tsimane0664251699);\" class=\"jspsych-btn\" style=\"background-color: white;\">Clip 6</button><audio src=\"audio/selected_audio_files/clips_to_use/0563745334.wav\" id = \"clip_33Tsimane0563745334\"></audio><button id=\"audio_button_33Tsimane0563745334\" onclick=\"ChangeColour(audio_button_33Tsimane0563745334); window.which_clicked = UpdateClicked(this.id,window.which_clicked);window.which_clicked = EnableButtons(window.which_clicked); PlaySound(clip_33Tsimane0563745334);\" class=\"jspsych-btn\" style=\"background-color: white;\">Clip 7</button><audio src=\"audio/selected_audio_files/clips_to_use/0627250033.wav\" id = \"clip_33Tsimane0627250033\"></audio><button id=\"audio_button_33Tsimane0627250033\" onclick=\"ChangeColour(audio_button_33Tsimane0627250033); window.which_clicked = UpdateClicked(this.id,window.which_clicked);window.which_clicked = EnableButtons(window.which_clicked); PlaySound(clip_33Tsimane0627250033);\" class=\"jspsych-btn\" style=\"background-color: white;\">Clip 8</button><audio src=\"audio/selected_audio_files/clips_to_use/0384238274.wav\" id = \"clip_33Tsimane0384238274\"></audio><button id=\"audio_button_33Tsimane0384238274\" onclick=\"ChangeColour(audio_button_33Tsimane0384238274); window.which_clicked = UpdateClicked(this.id,window.which_clicked);window.which_clicked = EnableButtons(window.which_clicked); PlaySound(clip_33Tsimane0384238274);\" class=\"jspsych-btn\" style=\"background-color: white;\">Clip 9</button><audio src=\"audio/selected_audio_files/clips_to_use/0886275076.wav\" id = \"clip_33Tsimane0886275076\"></audio><button id=\"audio_button_33Tsimane0886275076\" onclick=\"ChangeColour(audio_button_33Tsimane0886275076); window.which_clicked = UpdateClicked(this.id,window.which_clicked);window.which_clicked = EnableButtons(window.which_clicked); PlaySound(clip_33Tsimane0886275076);\" class=\"jspsych-btn\" style=\"background-color: white;\">Clip 10</button>","subject":"0fqjq8yae91cw2l","time_elapsed":323084,"trial_index":15,"trial_type":"html-button-response","unique_id":"33Tsimane"},{"StartTime":1584375660206,"age_group":"8-18","button_pressed":"1","correct":0,"fullscreen":true,"gender":"M","internal_node_id":"0.0-5.0-0.0-0.7","language":"Non-English","phase":"Sex","rt":15332.099999999627,"stimulus":"<audio src=\"audio/selected_audio_files/clips_to_use/0351119080.wav\" id = \"clip_41Tsimane0351119080\"></audio><button id=\"audio_button_41Tsimane0351119080\" onclick=\"ChangeColour(audio_button_41Tsimane0351119080); window.which_clicked = UpdateClicked(this.id,window.which_clicked);window.which_clicked = EnableButtons(window.which_clicked); PlaySound(clip_41Tsimane0351119080);\" class=\"jspsych-btn\" style=\"background-color: white;\">Clip 1</button><audio src=\"audio/selected_audio_files/clips_to_use/0825013164.wav\" id = \"clip_41Tsimane0825013164\"></audio><button id=\"audio_button_41Tsimane0825013164\" onclick=\"ChangeColour(audio_button_41Tsimane0825013164); window.which_clicked = UpdateClicked(this.id,window.which_clicked);window.which_clicked = EnableButtons(window.which_clicked); PlaySound(clip_41Tsimane0825013164);\" class=\"jspsych-btn\" style=\"background-color: white;\">Clip 2</button><audio src=\"audio/selected_audio_files/clips_to_use/0781974524.wav\" id = \"clip_41Tsimane0781974524\"></audio><button id=\"audio_button_41Tsimane0781974524\" onclick=\"ChangeColour(audio_button_41Tsimane0781974524); window.which_clicked = UpdateClicked(this.id,window.which_clicked);window.which_clicked = EnableButtons(window.which_clicked); PlaySound(clip_41Tsimane0781974524);\" class=\"jspsych-btn\" style=\"background-color: white;\">Clip 3</button><audio src=\"audio/selected_audio_files/clips_to_use/0562666634.wav\" id = \"clip_41Tsimane0562666634\"></audio><button id=\"audio_button_41Tsimane0562666634\" onclick=\"ChangeColour(audio_button_41Tsimane0562666634); window.which_clicked = UpdateClicked(this.id,window.which_clicked);window.which_clicked = EnableButtons(window.which_clicked); PlaySound(clip_41Tsimane0562666634);\" class=\"jspsych-btn\" style=\"background-color: white;\">Clip 4</button><audio src=\"audio/selected_audio_files/clips_to_use/0408049456.wav\" id = \"clip_41Tsimane0408049456\"></audio><button id=\"audio_button_41Tsimane0408049456\" onclick=\"ChangeColour(audio_button_41Tsimane0408049456); window.which_clicked = UpdateClicked(this.id,window.which_clicked);window.which_clicked = EnableButtons(window.which_clicked); PlaySound(clip_41Tsimane0408049456);\" class=\"jspsych-btn\" style=\"background-color: white;\">Clip 5</button><br><audio src=\"audio/selected_audio_files/clips_to_use/0970535113.wav\" id = \"clip_41Tsimane0970535113\"></audio><button id=\"audio_button_41Tsimane0970535113\" onclick=\"ChangeColour(audio_button_41Tsimane0970535113); window.which_clicked = UpdateClicked(this.id,window.which_clicked);window.which_clicked = EnableButtons(window.which_clicked); PlaySound(clip_41Tsimane0970535113);\" class=\"jspsych-btn\" style=\"background-color: white;\">Clip 6</button><audio src=\"audio/selected_audio_files/clips_to_use/0202719195.wav\" id = \"clip_41Tsimane0202719195\"></audio><button id=\"audio_button_41Tsimane0202719195\" onclick=\"ChangeColour(audio_button_41Tsimane0202719195); window.which_clicked = UpdateClicked(this.id,window.which_clicked);window.which_clicked = EnableButtons(window.which_clicked); PlaySound(clip_41Tsimane0202719195);\" class=\"jspsych-btn\" style=\"background-color: white;\">Clip 7</button><audio src=\"audio/selected_audio_files/clips_to_use/0861904787.wav\" id = \"clip_41Tsimane0861904787\"></audio><button id=\"audio_button_41Tsimane0861904787\" onclick=\"ChangeColour(audio_button_41Tsimane0861904787); window.which_clicked = UpdateClicked(this.id,window.which_clicked);window.which_clicked = EnableButtons(window.which_clicked); PlaySound(clip_41Tsimane0861904787);\" class=\"jspsych-btn\" style=\"background-color: white;\">Clip 8</button><audio src=\"audio/selected_audio_files/clips_to_use/0610353615.wav\" id = \"clip_41Tsimane0610353615\"></audio><button id=\"audio_button_41Tsimane0610353615\" onclick=\"ChangeColour(audio_button_41Tsimane0610353615); window.which_clicked = UpdateClicked(this.id,window.which_clicked);window.which_clicked = EnableButtons(window.which_clicked); PlaySound(clip_41Tsimane0610353615);\" class=\"jspsych-btn\" style=\"background-color: white;\">Clip 9</button><audio src=\"audio/selected_audio_files/clips_to_use/0820169163.wav\" id = \"clip_41Tsimane0820169163\"></audio><button id=\"audio_button_41Tsimane0820169163\" onclick=\"ChangeColour(audio_button_41Tsimane0820169163); window.which_clicked = UpdateClicked(this.id,window.which_clicked);window.which_clicked = EnableButtons(window.which_clicked); PlaySound(clip_41Tsimane0820169163);\" class=\"jspsych-btn\" style=\"background-color: white;\">Clip 10</button>","subject":"0fqjq8yae91cw2l","time_elapsed":338432,"trial_index":16,"trial_type":"html-button-response","unique_id":"41Tsimane"},{"StartTime":1584375660206,"age_group":"8-18","button_pressed":"1","correct":1,"fullscreen":true,"gender":"F","internal_node_id":"0.0-5.0-0.0-0.8","language":"Non-English","phase":"Sex","rt":11010.694999997213,"stimulus":"<audio src=\"audio/selected_audio_files/clips_to_use/0458074309.wav\" id = \"clip_34Tsimane0458074309\"></audio><button id=\"audio_button_34Tsimane0458074309\" onclick=\"ChangeColour(audio_button_34Tsimane0458074309); window.which_clicked = UpdateClicked(this.id,window.which_clicked);window.which_clicked = EnableButtons(window.which_clicked); PlaySound(clip_34Tsimane0458074309);\" class=\"jspsych-btn\" style=\"background-color: white;\">Clip 1</button><audio src=\"audio/selected_audio_files/clips_to_use/0173100970.wav\" id = \"clip_34Tsimane0173100970\"></audio><button id=\"audio_button_34Tsimane0173100970\" onclick=\"ChangeColour(audio_button_34Tsimane0173100970); window.which_clicked = UpdateClicked(this.id,window.which_clicked);window.which_clicked = EnableButtons(window.which_clicked); PlaySound(clip_34Tsimane0173100970);\" class=\"jspsych-btn\" style=\"background-color: white;\">Clip 2</button><audio src=\"audio/selected_audio_files/clips_to_use/0980141974.wav\" id = \"clip_34Tsimane0980141974\"></audio><button id=\"audio_button_34Tsimane0980141974\" onclick=\"ChangeColour(audio_button_34Tsimane0980141974); window.which_clicked = UpdateClicked(this.id,window.which_clicked);window.which_clicked = EnableButtons(window.which_clicked); PlaySound(clip_34Tsimane0980141974);\" class=\"jspsych-btn\" style=\"background-color: white;\">Clip 3</button><audio src=\"audio/selected_audio_files/clips_to_use/0436052134.wav\" id = \"clip_34Tsimane0436052134\"></audio><button id=\"audio_button_34Tsimane0436052134\" onclick=\"ChangeColour(audio_button_34Tsimane0436052134); window.which_clicked = UpdateClicked(this.id,window.which_clicked);window.which_clicked = EnableButtons(window.which_clicked); PlaySound(clip_34Tsimane0436052134);\" class=\"jspsych-btn\" style=\"background-color: white;\">Clip 4</button><audio src=\"audio/selected_audio_files/clips_to_use/0461824683.wav\" id = \"clip_34Tsimane0461824683\"></audio><button id=\"audio_button_34Tsimane0461824683\" onclick=\"ChangeColour(audio_button_34Tsimane0461824683); window.which_clicked = UpdateClicked(this.id,window.which_clicked);window.which_clicked = EnableButtons(window.which_clicked); PlaySound(clip_34Tsimane0461824683);\" class=\"jspsych-btn\" style=\"background-color: white;\">Clip 5</button><br><audio src=\"audio/selected_audio_files/clips_to_use/0262632768.wav\" id = \"clip_34Tsimane0262632768\"></audio><button id=\"audio_button_34Tsimane0262632768\" onclick=\"ChangeColour(audio_button_34Tsimane0262632768); window.which_clicked = UpdateClicked(this.id,window.which_clicked);window.which_clicked = EnableButtons(window.which_clicked); PlaySound(clip_34Tsimane0262632768);\" class=\"jspsych-btn\" style=\"background-color: white;\">Clip 6</button><audio src=\"audio/selected_audio_files/clips_to_use/0513374855.wav\" id = \"clip_34Tsimane0513374855\"></audio><button id=\"audio_button_34Tsimane0513374855\" onclick=\"ChangeColour(audio_button_34Tsimane0513374855); window.which_clicked = UpdateClicked(this.id,window.which_clicked);window.which_clicked = EnableButtons(window.which_clicked); PlaySound(clip_34Tsimane0513374855);\" class=\"jspsych-btn\" style=\"background-color: white;\">Clip 7</button><audio src=\"audio/selected_audio_files/clips_to_use/0671667981.wav\" id = \"clip_34Tsimane0671667981\"></audio><button id=\"audio_button_34Tsimane0671667981\" onclick=\"ChangeColour(audio_button_34Tsimane0671667981); window.which_clicked = UpdateClicked(this.id,window.which_clicked);window.which_clicked = EnableButtons(window.which_clicked); PlaySound(clip_34Tsimane0671667981);\" class=\"jspsych-btn\" style=\"background-color: white;\">Clip 8</button><audio src=\"audio/selected_audio_files/clips_to_use/0750616504.wav\" id = \"clip_34Tsimane0750616504\"></audio><button id=\"audio_button_34Tsimane0750616504\" onclick=\"ChangeColour(audio_button_34Tsimane0750616504); window.which_clicked = UpdateClicked(this.id,window.which_clicked);window.which_clicked = EnableButtons(window.which_clicked); PlaySound(clip_34Tsimane0750616504);\" class=\"jspsych-btn\" style=\"background-color: white;\">Clip 9</button><audio src=\"audio/selected_audio_files/clips_to_use/0262485425.wav\" id = \"clip_34Tsimane0262485425\"></audio><button id=\"audio_button_34Tsimane0262485425\" onclick=\"ChangeColour(audio_button_34Tsimane0262485425); window.which_clicked = UpdateClicked(this.id,window.which_clicked);window.which_clicked = EnableButtons(window.which_clicked); PlaySound(clip_34Tsimane0262485425);\" class=\"jspsych-btn\" style=\"background-color: white;\">Clip 10</button>","subject":"0fqjq8yae91cw2l","time_elapsed":349460,"trial_index":17,"trial_type":"html-button-response","unique_id":"34Tsimane"},{"StartTime":1584375660206,"age_group":"8-18","button_pressed":"0","correct":1,"fullscreen":true,"gender":"M","internal_node_id":"0.0-5.0-0.0-0.9","language":"Non-English","phase":"Sex","rt":12930.175000001327,"stimulus":"<audio src=\"audio/selected_audio_files/clips_to_use/0677150866.wav\" id = \"clip_F10CasillasYeli0677150866\"></audio><button id=\"audio_button_F10CasillasYeli0677150866\" onclick=\"ChangeColour(audio_button_F10CasillasYeli0677150866); window.which_clicked = UpdateClicked(this.id,window.which_clicked);window.which_clicked = EnableButtons(window.which_clicked); PlaySound(clip_F10CasillasYeli0677150866);\" class=\"jspsych-btn\" style=\"background-color: white;\">Clip 1</button><audio src=\"audio/selected_audio_files/clips_to_use/0646150756.wav\" id = \"clip_F10CasillasYeli0646150756\"></audio><button id=\"audio_button_F10CasillasYeli0646150756\" onclick=\"ChangeColour(audio_button_F10CasillasYeli0646150756); window.which_clicked = UpdateClicked(this.id,window.which_clicked);window.which_clicked = EnableButtons(window.which_clicked); PlaySound(clip_F10CasillasYeli0646150756);\" class=\"jspsych-btn\" style=\"background-color: white;\">Clip 2</button><audio src=\"audio/selected_audio_files/clips_to_use/0799775685.wav\" id = \"clip_F10CasillasYeli0799775685\"></audio><button id=\"audio_button_F10CasillasYeli0799775685\" onclick=\"ChangeColour(audio_button_F10CasillasYeli0799775685); window.which_clicked = UpdateClicked(this.id,window.which_clicked);window.which_clicked = EnableButtons(window.which_clicked); PlaySound(clip_F10CasillasYeli0799775685);\" class=\"jspsych-btn\" style=\"background-color: white;\">Clip 3</button><audio src=\"audio/selected_audio_files/clips_to_use/0884553740.wav\" id = \"clip_F10CasillasYeli0884553740\"></audio><button id=\"audio_button_F10CasillasYeli0884553740\" onclick=\"ChangeColour(audio_button_F10CasillasYeli0884553740); window.which_clicked = UpdateClicked(this.id,window.which_clicked);window.which_clicked = EnableButtons(window.which_clicked); PlaySound(clip_F10CasillasYeli0884553740);\" class=\"jspsych-btn\" style=\"background-color: white;\">Clip 4</button><audio src=\"audio/selected_audio_files/clips_to_use/0648610525.wav\" id = \"clip_F10CasillasYeli0648610525\"></audio><button id=\"audio_button_F10CasillasYeli0648610525\" onclick=\"ChangeColour(audio_button_F10CasillasYeli0648610525); window.which_clicked = UpdateClicked(this.id,window.which_clicked);window.which_clicked = EnableButtons(window.which_clicked); PlaySound(clip_F10CasillasYeli0648610525);\" class=\"jspsych-btn\" style=\"background-color: white;\">Clip 5</button><br><audio src=\"audio/selected_audio_files/clips_to_use/0873888199.wav\" id = \"clip_F10CasillasYeli0873888199\"></audio><button id=\"audio_button_F10CasillasYeli0873888199\" onclick=\"ChangeColour(audio_button_F10CasillasYeli0873888199); window.which_clicked = UpdateClicked(this.id,window.which_clicked);window.which_clicked = EnableButtons(window.which_clicked); PlaySound(clip_F10CasillasYeli0873888199);\" class=\"jspsych-btn\" style=\"background-color: white;\">Clip 6</button><audio src=\"audio/selected_audio_files/clips_to_use/0583480747.wav\" id = \"clip_F10CasillasYeli0583480747\"></audio><button id=\"audio_button_F10CasillasYeli0583480747\" onclick=\"ChangeColour(audio_button_F10CasillasYeli0583480747); window.which_clicked = UpdateClicked(this.id,window.which_clicked);window.which_clicked = EnableButtons(window.which_clicked); PlaySound(clip_F10CasillasYeli0583480747);\" class=\"jspsych-btn\" style=\"background-color: white;\">Clip 7</button><audio src=\"audio/selected_audio_files/clips_to_use/0739079941.wav\" id = \"clip_F10CasillasYeli0739079941\"></audio><button id=\"audio_button_F10CasillasYeli0739079941\" onclick=\"ChangeColour(audio_button_F10CasillasYeli0739079941); window.which_clicked = UpdateClicked(this.id,window.which_clicked);window.which_clicked = EnableButtons(window.which_clicked); PlaySound(clip_F10CasillasYeli0739079941);\" class=\"jspsych-btn\" style=\"background-color: white;\">Clip 8</button><audio src=\"audio/selected_audio_files/clips_to_use/0344394550.wav\" id = \"clip_F10CasillasYeli0344394550\"></audio><button id=\"audio_button_F10CasillasYeli0344394550\" onclick=\"ChangeColour(audio_button_F10CasillasYeli0344394550); window.which_clicked = UpdateClicked(this.id,window.which_clicked);window.which_clicked = EnableButtons(window.which_clicked); PlaySound(clip_F10CasillasYeli0344394550);\" class=\"jspsych-btn\" style=\"background-color: white;\">Clip 9</button><audio src=\"audio/selected_audio_files/clips_to_use/0388275030.wav\" id = \"clip_F10CasillasYeli0388275030\"></audio><button id=\"audio_button_F10CasillasYeli0388275030\" onclick=\"ChangeColour(audio_button_F10CasillasYeli0388275030); window.which_clicked = UpdateClicked(this.id,window.which_clicked);window.which_clicked = EnableButtons(window.which_clicked); PlaySound(clip_F10CasillasYeli0388275030);\" class=\"jspsych-btn\" style=\"background-color: white;\">Clip 10</button>","subject":"0fqjq8yae91cw2l","time_elapsed":362406,"trial_index":18,"trial_type":"html-button-response","unique_id":"F10CasillasYeli"},{"StartTime":1584375660206,"age_group":"19-36","button_pressed":"1","correct":1,"fullscreen":true,"gender":"F","internal_node_id":"0.0-5.0-1.0-0.0","language":"Non-English","phase":"Language","rt":16714.834999998857,"stimulus":"<audio src=\"audio/selected_audio_files/clips_to_use/0259986922.wav\" id = \"clip_39Tsimane0259986922\"></audio><button id=\"audio_button_39Tsimane0259986922\" onclick=\"ChangeColour(audio_button_39Tsimane0259986922); window.which_clicked = UpdateClicked(this.id,window.which_clicked);window.which_clicked = EnableButtons(window.which_clicked); PlaySound(clip_39Tsimane0259986922);\" class=\"jspsych-btn\" style=\"background-color: white;\">Clip 1</button><audio src=\"audio/selected_audio_files/clips_to_use/0522944726.wav\" id = \"clip_39Tsimane0522944726\"></audio><button id=\"audio_button_39Tsimane0522944726\" onclick=\"ChangeColour(audio_button_39Tsimane0522944726); window.which_clicked = UpdateClicked(this.id,window.which_clicked);window.which_clicked = EnableButtons(window.which_clicked); PlaySound(clip_39Tsimane0522944726);\" class=\"jspsych-btn\" style=\"background-color: white;\">Clip 2</button><audio src=\"audio/selected_audio_files/clips_to_use/0575763476.wav\" id = \"clip_39Tsimane0575763476\"></audio><button id=\"audio_button_39Tsimane0575763476\" onclick=\"ChangeColour(audio_button_39Tsimane0575763476); window.which_clicked = UpdateClicked(this.id,window.which_clicked);window.which_clicked = EnableButtons(window.which_clicked); PlaySound(clip_39Tsimane0575763476);\" class=\"jspsych-btn\" style=\"background-color: white;\">Clip 3</button><audio src=\"audio/selected_audio_files/clips_to_use/0467346166.wav\" id = \"clip_39Tsimane0467346166\"></audio><button id=\"audio_button_39Tsimane0467346166\" onclick=\"ChangeColour(audio_button_39Tsimane0467346166); window.which_clicked = UpdateClicked(this.id,window.which_clicked);window.which_clicked = EnableButtons(window.which_clicked); PlaySound(clip_39Tsimane0467346166);\" class=\"jspsych-btn\" style=\"background-color: white;\">Clip 4</button><audio src=\"audio/selected_audio_files/clips_to_use/0914077079.wav\" id = \"clip_39Tsimane0914077079\"></audio><button id=\"audio_button_39Tsimane0914077079\" onclick=\"ChangeColour(audio_button_39Tsimane0914077079); window.which_clicked = UpdateClicked(this.id,window.which_clicked);window.which_clicked = EnableButtons(window.which_clicked); PlaySound(clip_39Tsimane0914077079);\" class=\"jspsych-btn\" style=\"background-color: white;\">Clip 5</button><br><audio src=\"audio/selected_audio_files/clips_to_use/0474812445.wav\" id = \"clip_39Tsimane0474812445\"></audio><button id=\"audio_button_39Tsimane0474812445\" onclick=\"ChangeColour(audio_button_39Tsimane0474812445); window.which_clicked = UpdateClicked(this.id,window.which_clicked);window.which_clicked = EnableButtons(window.which_clicked); PlaySound(clip_39Tsimane0474812445);\" class=\"jspsych-btn\" style=\"background-color: white;\">Clip 6</button><audio src=\"audio/selected_audio_files/clips_to_use/0452846000.wav\" id = \"clip_39Tsimane0452846000\"></audio><button id=\"audio_button_39Tsimane0452846000\" onclick=\"ChangeColour(audio_button_39Tsimane0452846000); window.which_clicked = UpdateClicked(this.id,window.which_clicked);window.which_clicked = EnableButtons(window.which_clicked); PlaySound(clip_39Tsimane0452846000);\" class=\"jspsych-btn\" style=\"background-color: white;\">Clip 7</button><audio src=\"audio/selected_audio_files/clips_to_use/0121213453.wav\" id = \"clip_39Tsimane0121213453\"></audio><button id=\"audio_button_39Tsimane0121213453\" onclick=\"ChangeColour(audio_button_39Tsimane0121213453); window.which_clicked = UpdateClicked(this.id,window.which_clicked);window.which_clicked = EnableButtons(window.which_clicked); PlaySound(clip_39Tsimane0121213453);\" class=\"jspsych-btn\" style=\"background-color: white;\">Clip 8</button><audio src=\"audio/selected_audio_files/clips_to_use/0271723668.wav\" id = \"clip_39Tsimane0271723668\"></audio><button id=\"audio_button_39Tsimane0271723668\" onclick=\"ChangeColour(audio_button_39Tsimane0271723668); window.which_clicked = UpdateClicked(this.id,window.which_clicked);window.which_clicked = EnableButtons(window.which_clicked); PlaySound(clip_39Tsimane0271723668);\" class=\"jspsych-btn\" style=\"background-color: white;\">Clip 9</button><audio src=\"audio/selected_audio_files/clips_to_use/0912462888.wav\" id = \"clip_39Tsimane0912462888\"></audio><button id=\"audio_button_39Tsimane0912462888\" onclick=\"ChangeColour(audio_button_39Tsimane0912462888); window.which_clicked = UpdateClicked(this.id,window.which_clicked);window.which_clicked = EnableButtons(window.which_clicked); PlaySound(clip_39Tsimane0912462888);\" class=\"jspsych-btn\" style=\"background-color: white;\">Clip 10</button>","subject":"0fqjq8yae91cw2l","time_elapsed":379137,"trial_index":19,"trial_type":"html-button-response","unique_id":"39Tsimane"},{"StartTime":1584375660206,"age_group":"0-7","button_pressed":"0","correct":1,"fullscreen":true,"gender":"F","internal_node_id":"0.0-5.0-1.0-0.1","language":"English","phase":"Language","rt":10451.585000002524,"stimulus":"<audio src=\"audio/selected_audio_files/clips_to_use/0670664846.wav\" id = \"clip_36Seedlings0670664846\"></audio><button id=\"audio_button_36Seedlings0670664846\" onclick=\"ChangeColour(audio_button_36Seedlings0670664846); window.which_clicked = UpdateClicked(this.id,window.which_clicked);window.which_clicked = EnableButtons(window.which_clicked); PlaySound(clip_36Seedlings0670664846);\" class=\"jspsych-btn\" style=\"background-color: white;\">Clip 1</button><audio src=\"audio/selected_audio_files/clips_to_use/0424199364.wav\" id = \"clip_36Seedlings0424199364\"></audio><button id=\"audio_button_36Seedlings0424199364\" onclick=\"ChangeColour(audio_button_36Seedlings0424199364); window.which_clicked = UpdateClicked(this.id,window.which_clicked);window.which_clicked = EnableButtons(window.which_clicked); PlaySound(clip_36Seedlings0424199364);\" class=\"jspsych-btn\" style=\"background-color: white;\">Clip 2</button><audio src=\"audio/selected_audio_files/clips_to_use/0684996718.wav\" id = \"clip_36Seedlings0684996718\"></audio><button id=\"audio_button_36Seedlings0684996718\" onclick=\"ChangeColour(audio_button_36Seedlings0684996718); window.which_clicked = UpdateClicked(this.id,window.which_clicked);window.which_clicked = EnableButtons(window.which_clicked); PlaySound(clip_36Seedlings0684996718);\" class=\"jspsych-btn\" style=\"background-color: white;\">Clip 3</button><audio src=\"audio/selected_audio_files/clips_to_use/0144098495.wav\" id = \"clip_36Seedlings0144098495\"></audio><button id=\"audio_button_36Seedlings0144098495\" onclick=\"ChangeColour(audio_button_36Seedlings0144098495); window.which_clicked = UpdateClicked(this.id,window.which_clicked);window.which_clicked = EnableButtons(window.which_clicked); PlaySound(clip_36Seedlings0144098495);\" class=\"jspsych-btn\" style=\"background-color: white;\">Clip 4</button><audio src=\"audio/selected_audio_files/clips_to_use/0957224408.wav\" id = \"clip_36Seedlings0957224408\"></audio><button id=\"audio_button_36Seedlings0957224408\" onclick=\"ChangeColour(audio_button_36Seedlings0957224408); window.which_clicked = UpdateClicked(this.id,window.which_clicked);window.which_clicked = EnableButtons(window.which_clicked); PlaySound(clip_36Seedlings0957224408);\" class=\"jspsych-btn\" style=\"background-color: white;\">Clip 5</button><br><audio src=\"audio/selected_audio_files/clips_to_use/0442358514.wav\" id = \"clip_36Seedlings0442358514\"></audio><button id=\"audio_button_36Seedlings0442358514\" onclick=\"ChangeColour(audio_button_36Seedlings0442358514); window.which_clicked = UpdateClicked(this.id,window.which_clicked);window.which_clicked = EnableButtons(window.which_clicked); PlaySound(clip_36Seedlings0442358514);\" class=\"jspsych-btn\" style=\"background-color: white;\">Clip 6</button><audio src=\"audio/selected_audio_files/clips_to_use/0771563303.wav\" id = \"clip_36Seedlings0771563303\"></audio><button id=\"audio_button_36Seedlings0771563303\" onclick=\"ChangeColour(audio_button_36Seedlings0771563303); window.which_clicked = UpdateClicked(this.id,window.which_clicked);window.which_clicked = EnableButtons(window.which_clicked); PlaySound(clip_36Seedlings0771563303);\" class=\"jspsych-btn\" style=\"background-color: white;\">Clip 7</button><audio src=\"audio/selected_audio_files/clips_to_use/0986703067.wav\" id = \"clip_36Seedlings0986703067\"></audio><button id=\"audio_button_36Seedlings0986703067\" onclick=\"ChangeColour(audio_button_36Seedlings0986703067); window.which_clicked = UpdateClicked(this.id,window.which_clicked);window.which_clicked = EnableButtons(window.which_clicked); PlaySound(clip_36Seedlings0986703067);\" class=\"jspsych-btn\" style=\"background-color: white;\">Clip 8</button><audio src=\"audio/selected_audio_files/clips_to_use/0303502093.wav\" id = \"clip_36Seedlings0303502093\"></audio><button id=\"audio_button_36Seedlings0303502093\" onclick=\"ChangeColour(audio_button_36Seedlings0303502093); window.which_clicked = UpdateClicked(this.id,window.which_clicked);window.which_clicked = EnableButtons(window.which_clicked); PlaySound(clip_36Seedlings0303502093);\" class=\"jspsych-btn\" style=\"background-color: white;\">Clip 9</button><audio src=\"audio/selected_audio_files/clips_to_use/0598745689.wav\" id = \"clip_36Seedlings0598745689\"></audio><button id=\"audio_button_36Seedlings0598745689\" onclick=\"ChangeColour(audio_button_36Seedlings0598745689); window.which_clicked = UpdateClicked(this.id,window.which_clicked);window.which_clicked = EnableButtons(window.which_clicked); PlaySound(clip_36Seedlings0598745689);\" class=\"jspsych-btn\" style=\"background-color: white;\">Clip 10</button>","subject":"0fqjq8yae91cw2l","time_elapsed":389605,"trial_index":20,"trial_type":"html-button-response","unique_id":"36Seedlings"},{"StartTime":1584375660206,"age_group":"19-36","button_pressed":"0","correct":0,"fullscreen":true,"gender":"F","internal_node_id":"0.0-5.0-1.0-0.2","language":"Non-English","phase":"Language","rt":19414.9150000012,"stimulus":"<audio src=\"audio/selected_audio_files/clips_to_use/0471452186.wav\" id = \"clip_F31CasillasYeli0471452186\"></audio><button id=\"audio_button_F31CasillasYeli0471452186\" onclick=\"ChangeColour(audio_button_F31CasillasYeli0471452186); window.which_clicked = UpdateClicked(this.id,window.which_clicked);window.which_clicked = EnableButtons(window.which_clicked); PlaySound(clip_F31CasillasYeli0471452186);\" class=\"jspsych-btn\" style=\"background-color: white;\">Clip 1</button><audio src=\"audio/selected_audio_files/clips_to_use/0997937819.wav\" id = \"clip_F31CasillasYeli0997937819\"></audio><button id=\"audio_button_F31CasillasYeli0997937819\" onclick=\"ChangeColour(audio_button_F31CasillasYeli0997937819); window.which_clicked = UpdateClicked(this.id,window.which_clicked);window.which_clicked = EnableButtons(window.which_clicked); PlaySound(clip_F31CasillasYeli0997937819);\" class=\"jspsych-btn\" style=\"background-color: white;\">Clip 2</button><audio src=\"audio/selected_audio_files/clips_to_use/0621283319.wav\" id = \"clip_F31CasillasYeli0621283319\"></audio><button id=\"audio_button_F31CasillasYeli0621283319\" onclick=\"ChangeColour(audio_button_F31CasillasYeli0621283319); window.which_clicked = UpdateClicked(this.id,window.which_clicked);window.which_clicked = EnableButtons(window.which_clicked); PlaySound(clip_F31CasillasYeli0621283319);\" class=\"jspsych-btn\" style=\"background-color: white;\">Clip 3</button><audio src=\"audio/selected_audio_files/clips_to_use/0103032756.wav\" id = \"clip_F31CasillasYeli0103032756\"></audio><button id=\"audio_button_F31CasillasYeli0103032756\" onclick=\"ChangeColour(audio_button_F31CasillasYeli0103032756); window.which_clicked = UpdateClicked(this.id,window.which_clicked);window.which_clicked = EnableButtons(window.which_clicked); PlaySound(clip_F31CasillasYeli0103032756);\" class=\"jspsych-btn\" style=\"background-color: white;\">Clip 4</button><audio src=\"audio/selected_audio_files/clips_to_use/0912959736.wav\" id = \"clip_F31CasillasYeli0912959736\"></audio><button id=\"audio_button_F31CasillasYeli0912959736\" onclick=\"ChangeColour(audio_button_F31CasillasYeli0912959736); window.which_clicked = UpdateClicked(this.id,window.which_clicked);window.which_clicked = EnableButtons(window.which_clicked); PlaySound(clip_F31CasillasYeli0912959736);\" class=\"jspsych-btn\" style=\"background-color: white;\">Clip 5</button><br><audio src=\"audio/selected_audio_files/clips_to_use/0517305602.wav\" id = \"clip_F31CasillasYeli0517305602\"></audio><button id=\"audio_button_F31CasillasYeli0517305602\" onclick=\"ChangeColour(audio_button_F31CasillasYeli0517305602); window.which_clicked = UpdateClicked(this.id,window.which_clicked);window.which_clicked = EnableButtons(window.which_clicked); PlaySound(clip_F31CasillasYeli0517305602);\" class=\"jspsych-btn\" style=\"background-color: white;\">Clip 6</button><audio src=\"audio/selected_audio_files/clips_to_use/0678448275.wav\" id = \"clip_F31CasillasYeli0678448275\"></audio><button id=\"audio_button_F31CasillasYeli0678448275\" onclick=\"ChangeColour(audio_button_F31CasillasYeli0678448275); window.which_clicked = UpdateClicked(this.id,window.which_clicked);window.which_clicked = EnableButtons(window.which_clicked); PlaySound(clip_F31CasillasYeli0678448275);\" class=\"jspsych-btn\" style=\"background-color: white;\">Clip 7</button><audio src=\"audio/selected_audio_files/clips_to_use/0920082536.wav\" id = \"clip_F31CasillasYeli0920082536\"></audio><button id=\"audio_button_F31CasillasYeli0920082536\" onclick=\"ChangeColour(audio_button_F31CasillasYeli0920082536); window.which_clicked = UpdateClicked(this.id,window.which_clicked);window.which_clicked = EnableButtons(window.which_clicked); PlaySound(clip_F31CasillasYeli0920082536);\" class=\"jspsych-btn\" style=\"background-color: white;\">Clip 8</button><audio src=\"audio/selected_audio_files/clips_to_use/0117316771.wav\" id = \"clip_F31CasillasYeli0117316771\"></audio><button id=\"audio_button_F31CasillasYeli0117316771\" onclick=\"ChangeColour(audio_button_F31CasillasYeli0117316771); window.which_clicked = UpdateClicked(this.id,window.which_clicked);window.which_clicked = EnableButtons(window.which_clicked); PlaySound(clip_F31CasillasYeli0117316771);\" class=\"jspsych-btn\" style=\"background-color: white;\">Clip 9</button><audio src=\"audio/selected_audio_files/clips_to_use/0118940841.wav\" id = \"clip_F31CasillasYeli0118940841\"></audio><button id=\"audio_button_F31CasillasYeli0118940841\" onclick=\"ChangeColour(audio_button_F31CasillasYeli0118940841); window.which_clicked = UpdateClicked(this.id,window.which_clicked);window.which_clicked = EnableButtons(window.which_clicked); PlaySound(clip_F31CasillasYeli0118940841);\" class=\"jspsych-btn\" style=\"background-color: white;\">Clip 10</button>","subject":"0fqjq8yae91cw2l","time_elapsed":409036,"trial_index":21,"trial_type":"html-button-response","unique_id":"F31CasillasYeli"},{"StartTime":1584375660206,"age_group":"8-18","button_pressed":"1","correct":1,"fullscreen":true,"gender":"M","internal_node_id":"0.0-5.0-1.0-0.3","language":"Non-English","phase":"Language","rt":18478.73499999696,"stimulus":"<audio src=\"audio/selected_audio_files/clips_to_use/0353396850.wav\" id = \"clip_41Tsimane0353396850\"></audio><button id=\"audio_button_41Tsimane0353396850\" onclick=\"ChangeColour(audio_button_41Tsimane0353396850); window.which_clicked = UpdateClicked(this.id,window.which_clicked);window.which_clicked = EnableButtons(window.which_clicked); PlaySound(clip_41Tsimane0353396850);\" class=\"jspsych-btn\" style=\"background-color: white;\">Clip 1</button><audio src=\"audio/selected_audio_files/clips_to_use/0696111489.wav\" id = \"clip_41Tsimane0696111489\"></audio><button id=\"audio_button_41Tsimane0696111489\" onclick=\"ChangeColour(audio_button_41Tsimane0696111489); window.which_clicked = UpdateClicked(this.id,window.which_clicked);window.which_clicked = EnableButtons(window.which_clicked); PlaySound(clip_41Tsimane0696111489);\" class=\"jspsych-btn\" style=\"background-color: white;\">Clip 2</button><audio src=\"audio/selected_audio_files/clips_to_use/0394011826.wav\" id = \"clip_41Tsimane0394011826\"></audio><button id=\"audio_button_41Tsimane0394011826\" onclick=\"ChangeColour(audio_button_41Tsimane0394011826); window.which_clicked = UpdateClicked(this.id,window.which_clicked);window.which_clicked = EnableButtons(window.which_clicked); PlaySound(clip_41Tsimane0394011826);\" class=\"jspsych-btn\" style=\"background-color: white;\">Clip 3</button><audio src=\"audio/selected_audio_files/clips_to_use/0827088460.wav\" id = \"clip_41Tsimane0827088460\"></audio><button id=\"audio_button_41Tsimane0827088460\" onclick=\"ChangeColour(audio_button_41Tsimane0827088460); window.which_clicked = UpdateClicked(this.id,window.which_clicked);window.which_clicked = EnableButtons(window.which_clicked); PlaySound(clip_41Tsimane0827088460);\" class=\"jspsych-btn\" style=\"background-color: white;\">Clip 4</button><audio src=\"audio/selected_audio_files/clips_to_use/0334758114.wav\" id = \"clip_41Tsimane0334758114\"></audio><button id=\"audio_button_41Tsimane0334758114\" onclick=\"ChangeColour(audio_button_41Tsimane0334758114); window.which_clicked = UpdateClicked(this.id,window.which_clicked);window.which_clicked = EnableButtons(window.which_clicked); PlaySound(clip_41Tsimane0334758114);\" class=\"jspsych-btn\" style=\"background-color: white;\">Clip 5</button><br><audio src=\"audio/selected_audio_files/clips_to_use/0821855474.wav\" id = \"clip_41Tsimane0821855474\"></audio><button id=\"audio_button_41Tsimane0821855474\" onclick=\"ChangeColour(audio_button_41Tsimane0821855474); window.which_clicked = UpdateClicked(this.id,window.which_clicked);window.which_clicked = EnableButtons(window.which_clicked); PlaySound(clip_41Tsimane0821855474);\" class=\"jspsych-btn\" style=\"background-color: white;\">Clip 6</button><audio src=\"audio/selected_audio_files/clips_to_use/0317225317.wav\" id = \"clip_41Tsimane0317225317\"></audio><button id=\"audio_button_41Tsimane0317225317\" onclick=\"ChangeColour(audio_button_41Tsimane0317225317); window.which_clicked = UpdateClicked(this.id,window.which_clicked);window.which_clicked = EnableButtons(window.which_clicked); PlaySound(clip_41Tsimane0317225317);\" class=\"jspsych-btn\" style=\"background-color: white;\">Clip 7</button><audio src=\"audio/selected_audio_files/clips_to_use/0220184606.wav\" id = \"clip_41Tsimane0220184606\"></audio><button id=\"audio_button_41Tsimane0220184606\" onclick=\"ChangeColour(audio_button_41Tsimane0220184606); window.which_clicked = UpdateClicked(this.id,window.which_clicked);window.which_clicked = EnableButtons(window.which_clicked); PlaySound(clip_41Tsimane0220184606);\" class=\"jspsych-btn\" style=\"background-color: white;\">Clip 8</button><audio src=\"audio/selected_audio_files/clips_to_use/0820169163.wav\" id = \"clip_41Tsimane0820169163\"></audio><button id=\"audio_button_41Tsimane0820169163\" onclick=\"ChangeColour(audio_button_41Tsimane0820169163); window.which_clicked = UpdateClicked(this.id,window.which_clicked);window.which_clicked = EnableButtons(window.which_clicked); PlaySound(clip_41Tsimane0820169163);\" class=\"jspsych-btn\" style=\"background-color: white;\">Clip 9</button><audio src=\"audio/selected_audio_files/clips_to_use/0483662334.wav\" id = \"clip_41Tsimane0483662334\"></audio><button id=\"audio_button_41Tsimane0483662334\" onclick=\"ChangeColour(audio_button_41Tsimane0483662334); window.which_clicked = UpdateClicked(this.id,window.which_clicked);window.which_clicked = EnableButtons(window.which_clicked); PlaySound(clip_41Tsimane0483662334);\" class=\"jspsych-btn\" style=\"background-color: white;\">Clip 10</button>","subject":"0fqjq8yae91cw2l","time_elapsed":427532,"trial_index":22,"trial_type":"html-button-response","unique_id":"41Tsimane"},{"StartTime":1584375660206,"age_group":"19-36","button_pressed":"0","correct":1,"fullscreen":true,"gender":"M","internal_node_id":"0.0-5.0-1.0-0.4","language":"English","phase":"Language","rt":13597.419999998237,"stimulus":"<audio src=\"audio/selected_audio_files/clips_to_use/0397365922.wav\" id = \"clip_11Seedlings0397365922\"></audio><button id=\"audio_button_11Seedlings0397365922\" onclick=\"ChangeColour(audio_button_11Seedlings0397365922); window.which_clicked = UpdateClicked(this.id,window.which_clicked);window.which_clicked = EnableButtons(window.which_clicked); PlaySound(clip_11Seedlings0397365922);\" class=\"jspsych-btn\" style=\"background-color: white;\">Clip 1</button><audio src=\"audio/selected_audio_files/clips_to_use/0617697660.wav\" id = \"clip_11Seedlings0617697660\"></audio><button id=\"audio_button_11Seedlings0617697660\" onclick=\"ChangeColour(audio_button_11Seedlings0617697660); window.which_clicked = UpdateClicked(this.id,window.which_clicked);window.which_clicked = EnableButtons(window.which_clicked); PlaySound(clip_11Seedlings0617697660);\" class=\"jspsych-btn\" style=\"background-color: white;\">Clip 2</button><audio src=\"audio/selected_audio_files/clips_to_use/0649961273.wav\" id = \"clip_11Seedlings0649961273\"></audio><button id=\"audio_button_11Seedlings0649961273\" onclick=\"ChangeColour(audio_button_11Seedlings0649961273); window.which_clicked = UpdateClicked(this.id,window.which_clicked);window.which_clicked = EnableButtons(window.which_clicked); PlaySound(clip_11Seedlings0649961273);\" class=\"jspsych-btn\" style=\"background-color: white;\">Clip 3</button><audio src=\"audio/selected_audio_files/clips_to_use/0668097867.wav\" id = \"clip_11Seedlings0668097867\"></audio><button id=\"audio_button_11Seedlings0668097867\" onclick=\"ChangeColour(audio_button_11Seedlings0668097867); window.which_clicked = UpdateClicked(this.id,window.which_clicked);window.which_clicked = EnableButtons(window.which_clicked); PlaySound(clip_11Seedlings0668097867);\" class=\"jspsych-btn\" style=\"background-color: white;\">Clip 4</button><audio src=\"audio/selected_audio_files/clips_to_use/0130118234.wav\" id = \"clip_11Seedlings0130118234\"></audio><button id=\"audio_button_11Seedlings0130118234\" onclick=\"ChangeColour(audio_button_11Seedlings0130118234); window.which_clicked = UpdateClicked(this.id,window.which_clicked);window.which_clicked = EnableButtons(window.which_clicked); PlaySound(clip_11Seedlings0130118234);\" class=\"jspsych-btn\" style=\"background-color: white;\">Clip 5</button><br><audio src=\"audio/selected_audio_files/clips_to_use/0601625849.wav\" id = \"clip_11Seedlings0601625849\"></audio><button id=\"audio_button_11Seedlings0601625849\" onclick=\"ChangeColour(audio_button_11Seedlings0601625849); window.which_clicked = UpdateClicked(this.id,window.which_clicked);window.which_clicked = EnableButtons(window.which_clicked); PlaySound(clip_11Seedlings0601625849);\" class=\"jspsych-btn\" style=\"background-color: white;\">Clip 6</button><audio src=\"audio/selected_audio_files/clips_to_use/0965888736.wav\" id = \"clip_11Seedlings0965888736\"></audio><button id=\"audio_button_11Seedlings0965888736\" onclick=\"ChangeColour(audio_button_11Seedlings0965888736); window.which_clicked = UpdateClicked(this.id,window.which_clicked);window.which_clicked = EnableButtons(window.which_clicked); PlaySound(clip_11Seedlings0965888736);\" class=\"jspsych-btn\" style=\"background-color: white;\">Clip 7</button><audio src=\"audio/selected_audio_files/clips_to_use/0694178830.wav\" id = \"clip_11Seedlings0694178830\"></audio><button id=\"audio_button_11Seedlings0694178830\" onclick=\"ChangeColour(audio_button_11Seedlings0694178830); window.which_clicked = UpdateClicked(this.id,window.which_clicked);window.which_clicked = EnableButtons(window.which_clicked); PlaySound(clip_11Seedlings0694178830);\" class=\"jspsych-btn\" style=\"background-color: white;\">Clip 8</button><audio src=\"audio/selected_audio_files/clips_to_use/0451244527.wav\" id = \"clip_11Seedlings0451244527\"></audio><button id=\"audio_button_11Seedlings0451244527\" onclick=\"ChangeColour(audio_button_11Seedlings0451244527); window.which_clicked = UpdateClicked(this.id,window.which_clicked);window.which_clicked = EnableButtons(window.which_clicked); PlaySound(clip_11Seedlings0451244527);\" class=\"jspsych-btn\" style=\"background-color: white;\">Clip 9</button><audio src=\"audio/selected_audio_files/clips_to_use/0608611414.wav\" id = \"clip_11Seedlings0608611414\"></audio><button id=\"audio_button_11Seedlings0608611414\" onclick=\"ChangeColour(audio_button_11Seedlings0608611414); window.which_clicked = UpdateClicked(this.id,window.which_clicked);window.which_clicked = EnableButtons(window.which_clicked); PlaySound(clip_11Seedlings0608611414);\" class=\"jspsych-btn\" style=\"background-color: white;\">Clip 10</button>","subject":"0fqjq8yae91cw2l","time_elapsed":441146,"trial_index":23,"trial_type":"html-button-response","unique_id":"11Seedlings"},{"StartTime":1584375660206,"age_group":"19-36","button_pressed":"0","correct":1,"fullscreen":true,"gender":"M","internal_node_id":"0.0-5.0-1.0-0.5","language":"English","phase":"Language","rt":20025.004999995872,"stimulus":"<audio src=\"audio/selected_audio_files/clips_to_use/0180969042.wav\" id = \"clip_9Seedlings0180969042\"></audio><button id=\"audio_button_9Seedlings0180969042\" onclick=\"ChangeColour(audio_button_9Seedlings0180969042); window.which_clicked = UpdateClicked(this.id,window.which_clicked);window.which_clicked = EnableButtons(window.which_clicked); PlaySound(clip_9Seedlings0180969042);\" class=\"jspsych-btn\" style=\"background-color: white;\">Clip 1</button><audio src=\"audio/selected_audio_files/clips_to_use/0823461431.wav\" id = \"clip_9Seedlings0823461431\"></audio><button id=\"audio_button_9Seedlings0823461431\" onclick=\"ChangeColour(audio_button_9Seedlings0823461431); window.which_clicked = UpdateClicked(this.id,window.which_clicked);window.which_clicked = EnableButtons(window.which_clicked); PlaySound(clip_9Seedlings0823461431);\" class=\"jspsych-btn\" style=\"background-color: white;\">Clip 2</button><audio src=\"audio/selected_audio_files/clips_to_use/0872237712.wav\" id = \"clip_9Seedlings0872237712\"></audio><button id=\"audio_button_9Seedlings0872237712\" onclick=\"ChangeColour(audio_button_9Seedlings0872237712); window.which_clicked = UpdateClicked(this.id,window.which_clicked);window.which_clicked = EnableButtons(window.which_clicked); PlaySound(clip_9Seedlings0872237712);\" class=\"jspsych-btn\" style=\"background-color: white;\">Clip 3</button><audio src=\"audio/selected_audio_files/clips_to_use/0915390782.wav\" id = \"clip_9Seedlings0915390782\"></audio><button id=\"audio_button_9Seedlings0915390782\" onclick=\"ChangeColour(audio_button_9Seedlings0915390782); window.which_clicked = UpdateClicked(this.id,window.which_clicked);window.which_clicked = EnableButtons(window.which_clicked); PlaySound(clip_9Seedlings0915390782);\" class=\"jspsych-btn\" style=\"background-color: white;\">Clip 4</button><audio src=\"audio/selected_audio_files/clips_to_use/0473735283.wav\" id = \"clip_9Seedlings0473735283\"></audio><button id=\"audio_button_9Seedlings0473735283\" onclick=\"ChangeColour(audio_button_9Seedlings0473735283); window.which_clicked = UpdateClicked(this.id,window.which_clicked);window.which_clicked = EnableButtons(window.which_clicked); PlaySound(clip_9Seedlings0473735283);\" class=\"jspsych-btn\" style=\"background-color: white;\">Clip 5</button><br><audio src=\"audio/selected_audio_files/clips_to_use/0979024769.wav\" id = \"clip_9Seedlings0979024769\"></audio><button id=\"audio_button_9Seedlings0979024769\" onclick=\"ChangeColour(audio_button_9Seedlings0979024769); window.which_clicked = UpdateClicked(this.id,window.which_clicked);window.which_clicked = EnableButtons(window.which_clicked); PlaySound(clip_9Seedlings0979024769);\" class=\"jspsych-btn\" style=\"background-color: white;\">Clip 6</button><audio src=\"audio/selected_audio_files/clips_to_use/0546178548.wav\" id = \"clip_9Seedlings0546178548\"></audio><button id=\"audio_button_9Seedlings0546178548\" onclick=\"ChangeColour(audio_button_9Seedlings0546178548); window.which_clicked = UpdateClicked(this.id,window.which_clicked);window.which_clicked = EnableButtons(window.which_clicked); PlaySound(clip_9Seedlings0546178548);\" class=\"jspsych-btn\" style=\"background-color: white;\">Clip 7</button><audio src=\"audio/selected_audio_files/clips_to_use/0520847439.wav\" id = \"clip_9Seedlings0520847439\"></audio><button id=\"audio_button_9Seedlings0520847439\" onclick=\"ChangeColour(audio_button_9Seedlings0520847439); window.which_clicked = UpdateClicked(this.id,window.which_clicked);window.which_clicked = EnableButtons(window.which_clicked); PlaySound(clip_9Seedlings0520847439);\" class=\"jspsych-btn\" style=\"background-color: white;\">Clip 8</button><audio src=\"audio/selected_audio_files/clips_to_use/0411807089.wav\" id = \"clip_9Seedlings0411807089\"></audio><button id=\"audio_button_9Seedlings0411807089\" onclick=\"ChangeColour(audio_button_9Seedlings0411807089); window.which_clicked = UpdateClicked(this.id,window.which_clicked);window.which_clicked = EnableButtons(window.which_clicked); PlaySound(clip_9Seedlings0411807089);\" class=\"jspsych-btn\" style=\"background-color: white;\">Clip 9</button><audio src=\"audio/selected_audio_files/clips_to_use/0717741284.wav\" id = \"clip_9Seedlings0717741284\"></audio><button id=\"audio_button_9Seedlings0717741284\" onclick=\"ChangeColour(audio_button_9Seedlings0717741284); window.which_clicked = UpdateClicked(this.id,window.which_clicked);window.which_clicked = EnableButtons(window.which_clicked); PlaySound(clip_9Seedlings0717741284);\" class=\"jspsych-btn\" style=\"background-color: white;\">Clip 10</button>","subject":"0fqjq8yae91cw2l","time_elapsed":461188,"trial_index":24,"trial_type":"html-button-response","unique_id":"9Seedlings"},{"StartTime":1584375660206,"age_group":"8-18","button_pressed":"1","correct":0,"fullscreen":true,"gender":"NA","internal_node_id":"0.0-5.0-1.0-0.6","language":"English","phase":"Language","rt":23489.78999999963,"stimulus":"<audio src=\"audio/selected_audio_files/clips_to_use/0657024141.wav\" id = \"clip_4Seedlings0657024141\"></audio><button id=\"audio_button_4Seedlings0657024141\" onclick=\"ChangeColour(audio_button_4Seedlings0657024141); window.which_clicked = UpdateClicked(this.id,window.which_clicked);window.which_clicked = EnableButtons(window.which_clicked); PlaySound(clip_4Seedlings0657024141);\" class=\"jspsych-btn\" style=\"background-color: white;\">Clip 1</button><audio src=\"audio/selected_audio_files/clips_to_use/0473295652.wav\" id = \"clip_4Seedlings0473295652\"></audio><button id=\"audio_button_4Seedlings0473295652\" onclick=\"ChangeColour(audio_button_4Seedlings0473295652); window.which_clicked = UpdateClicked(this.id,window.which_clicked);window.which_clicked = EnableButtons(window.which_clicked); PlaySound(clip_4Seedlings0473295652);\" class=\"jspsych-btn\" style=\"background-color: white;\">Clip 2</button><audio src=\"audio/selected_audio_files/clips_to_use/0400331344.wav\" id = \"clip_4Seedlings0400331344\"></audio><button id=\"audio_button_4Seedlings0400331344\" onclick=\"ChangeColour(audio_button_4Seedlings0400331344); window.which_clicked = UpdateClicked(this.id,window.which_clicked);window.which_clicked = EnableButtons(window.which_clicked); PlaySound(clip_4Seedlings0400331344);\" class=\"jspsych-btn\" style=\"background-color: white;\">Clip 3</button><audio src=\"audio/selected_audio_files/clips_to_use/0434275470.wav\" id = \"clip_4Seedlings0434275470\"></audio><button id=\"audio_button_4Seedlings0434275470\" onclick=\"ChangeColour(audio_button_4Seedlings0434275470); window.which_clicked = UpdateClicked(this.id,window.which_clicked);window.which_clicked = EnableButtons(window.which_clicked); PlaySound(clip_4Seedlings0434275470);\" class=\"jspsych-btn\" style=\"background-color: white;\">Clip 4</button><audio src=\"audio/selected_audio_files/clips_to_use/0478370264.wav\" id = \"clip_4Seedlings0478370264\"></audio><button id=\"audio_button_4Seedlings0478370264\" onclick=\"ChangeColour(audio_button_4Seedlings0478370264); window.which_clicked = UpdateClicked(this.id,window.which_clicked);window.which_clicked = EnableButtons(window.which_clicked); PlaySound(clip_4Seedlings0478370264);\" class=\"jspsych-btn\" style=\"background-color: white;\">Clip 5</button><br><audio src=\"audio/selected_audio_files/clips_to_use/0533093716.wav\" id = \"clip_4Seedlings0533093716\"></audio><button id=\"audio_button_4Seedlings0533093716\" onclick=\"ChangeColour(audio_button_4Seedlings0533093716); window.which_clicked = UpdateClicked(this.id,window.which_clicked);window.which_clicked = EnableButtons(window.which_clicked); PlaySound(clip_4Seedlings0533093716);\" class=\"jspsych-btn\" style=\"background-color: white;\">Clip 6</button><audio src=\"audio/selected_audio_files/clips_to_use/0987318079.wav\" id = \"clip_4Seedlings0987318079\"></audio><button id=\"audio_button_4Seedlings0987318079\" onclick=\"ChangeColour(audio_button_4Seedlings0987318079); window.which_clicked = UpdateClicked(this.id,window.which_clicked);window.which_clicked = EnableButtons(window.which_clicked); PlaySound(clip_4Seedlings0987318079);\" class=\"jspsych-btn\" style=\"background-color: white;\">Clip 7</button><audio src=\"audio/selected_audio_files/clips_to_use/0757262082.wav\" id = \"clip_4Seedlings0757262082\"></audio><button id=\"audio_button_4Seedlings0757262082\" onclick=\"ChangeColour(audio_button_4Seedlings0757262082); window.which_clicked = UpdateClicked(this.id,window.which_clicked);window.which_clicked = EnableButtons(window.which_clicked); PlaySound(clip_4Seedlings0757262082);\" class=\"jspsych-btn\" style=\"background-color: white;\">Clip 8</button><audio src=\"audio/selected_audio_files/clips_to_use/0904895638.wav\" id = \"clip_4Seedlings0904895638\"></audio><button id=\"audio_button_4Seedlings0904895638\" onclick=\"ChangeColour(audio_button_4Seedlings0904895638); window.which_clicked = UpdateClicked(this.id,window.which_clicked);window.which_clicked = EnableButtons(window.which_clicked); PlaySound(clip_4Seedlings0904895638);\" class=\"jspsych-btn\" style=\"background-color: white;\">Clip 9</button><audio src=\"audio/selected_audio_files/clips_to_use/0159038962.wav\" id = \"clip_4Seedlings0159038962\"></audio><button id=\"audio_button_4Seedlings0159038962\" onclick=\"ChangeColour(audio_button_4Seedlings0159038962); window.which_clicked = UpdateClicked(this.id,window.which_clicked);window.which_clicked = EnableButtons(window.which_clicked); PlaySound(clip_4Seedlings0159038962);\" class=\"jspsych-btn\" style=\"background-color: white;\">Clip 10</button>","subject":"0fqjq8yae91cw2l","time_elapsed":484695,"trial_index":25,"trial_type":"html-button-response","unique_id":"4Seedlings"},{"StartTime":1584375660206,"age_group":"0-7","button_pressed":"0","correct":0,"fullscreen":true,"gender":"F","internal_node_id":"0.0-5.0-1.0-0.7","language":"Non-English","phase":"Language","rt":21183.035000001837,"stimulus":"<audio src=\"audio/selected_audio_files/clips_to_use/0683718388.wav\" id = \"clip_36Tsimane0683718388\"></audio><button id=\"audio_button_36Tsimane0683718388\" onclick=\"ChangeColour(audio_button_36Tsimane0683718388); window.which_clicked = UpdateClicked(this.id,window.which_clicked);window.which_clicked = EnableButtons(window.which_clicked); PlaySound(clip_36Tsimane0683718388);\" class=\"jspsych-btn\" style=\"background-color: white;\">Clip 1</button><audio src=\"audio/selected_audio_files/clips_to_use/0521370582.wav\" id = \"clip_36Tsimane0521370582\"></audio><button id=\"audio_button_36Tsimane0521370582\" onclick=\"ChangeColour(audio_button_36Tsimane0521370582); window.which_clicked = UpdateClicked(this.id,window.which_clicked);window.which_clicked = EnableButtons(window.which_clicked); PlaySound(clip_36Tsimane0521370582);\" class=\"jspsych-btn\" style=\"background-color: white;\">Clip 2</button><audio src=\"audio/selected_audio_files/clips_to_use/0376060627.wav\" id = \"clip_36Tsimane0376060627\"></audio><button id=\"audio_button_36Tsimane0376060627\" onclick=\"ChangeColour(audio_button_36Tsimane0376060627); window.which_clicked = UpdateClicked(this.id,window.which_clicked);window.which_clicked = EnableButtons(window.which_clicked); PlaySound(clip_36Tsimane0376060627);\" class=\"jspsych-btn\" style=\"background-color: white;\">Clip 3</button><audio src=\"audio/selected_audio_files/clips_to_use/0335604828.wav\" id = \"clip_36Tsimane0335604828\"></audio><button id=\"audio_button_36Tsimane0335604828\" onclick=\"ChangeColour(audio_button_36Tsimane0335604828); window.which_clicked = UpdateClicked(this.id,window.which_clicked);window.which_clicked = EnableButtons(window.which_clicked); PlaySound(clip_36Tsimane0335604828);\" class=\"jspsych-btn\" style=\"background-color: white;\">Clip 4</button><audio src=\"audio/selected_audio_files/clips_to_use/0509078610.wav\" id = \"clip_36Tsimane0509078610\"></audio><button id=\"audio_button_36Tsimane0509078610\" onclick=\"ChangeColour(audio_button_36Tsimane0509078610); window.which_clicked = UpdateClicked(this.id,window.which_clicked);window.which_clicked = EnableButtons(window.which_clicked); PlaySound(clip_36Tsimane0509078610);\" class=\"jspsych-btn\" style=\"background-color: white;\">Clip 5</button><br><audio src=\"audio/selected_audio_files/clips_to_use/0809609812.wav\" id = \"clip_36Tsimane0809609812\"></audio><button id=\"audio_button_36Tsimane0809609812\" onclick=\"ChangeColour(audio_button_36Tsimane0809609812); window.which_clicked = UpdateClicked(this.id,window.which_clicked);window.which_clicked = EnableButtons(window.which_clicked); PlaySound(clip_36Tsimane0809609812);\" class=\"jspsych-btn\" style=\"background-color: white;\">Clip 6</button><audio src=\"audio/selected_audio_files/clips_to_use/0552952859.wav\" id = \"clip_36Tsimane0552952859\"></audio><button id=\"audio_button_36Tsimane0552952859\" onclick=\"ChangeColour(audio_button_36Tsimane0552952859); window.which_clicked = UpdateClicked(this.id,window.which_clicked);window.which_clicked = EnableButtons(window.which_clicked); PlaySound(clip_36Tsimane0552952859);\" class=\"jspsych-btn\" style=\"background-color: white;\">Clip 7</button><audio src=\"audio/selected_audio_files/clips_to_use/0102219017.wav\" id = \"clip_36Tsimane0102219017\"></audio><button id=\"audio_button_36Tsimane0102219017\" onclick=\"ChangeColour(audio_button_36Tsimane0102219017); window.which_clicked = UpdateClicked(this.id,window.which_clicked);window.which_clicked = EnableButtons(window.which_clicked); PlaySound(clip_36Tsimane0102219017);\" class=\"jspsych-btn\" style=\"background-color: white;\">Clip 8</button><audio src=\"audio/selected_audio_files/clips_to_use/0292268565.wav\" id = \"clip_36Tsimane0292268565\"></audio><button id=\"audio_button_36Tsimane0292268565\" onclick=\"ChangeColour(audio_button_36Tsimane0292268565); window.which_clicked = UpdateClicked(this.id,window.which_clicked);window.which_clicked = EnableButtons(window.which_clicked); PlaySound(clip_36Tsimane0292268565);\" class=\"jspsych-btn\" style=\"background-color: white;\">Clip 9</button><audio src=\"audio/selected_audio_files/clips_to_use/0440097089.wav\" id = \"clip_36Tsimane0440097089\"></audio><button id=\"audio_button_36Tsimane0440097089\" onclick=\"ChangeColour(audio_button_36Tsimane0440097089); window.which_clicked = UpdateClicked(this.id,window.which_clicked);window.which_clicked = EnableButtons(window.which_clicked); PlaySound(clip_36Tsimane0440097089);\" class=\"jspsych-btn\" style=\"background-color: white;\">Clip 10</button>","subject":"0fqjq8yae91cw2l","time_elapsed":505896,"trial_index":26,"trial_type":"html-button-response","unique_id":"36Tsimane"},{"StartTime":1584375660206,"age_group":"0-7","button_pressed":"1","correct":0,"fullscreen":true,"gender":"M","internal_node_id":"0.0-5.0-1.0-0.8","language":"English","phase":"Language","rt":20385.06999999663,"stimulus":"<audio src=\"audio/selected_audio_files/clips_to_use/0589760242.wav\" id = \"clip_26Seedlings0589760242\"></audio><button id=\"audio_button_26Seedlings0589760242\" onclick=\"ChangeColour(audio_button_26Seedlings0589760242); window.which_clicked = UpdateClicked(this.id,window.which_clicked);window.which_clicked = EnableButtons(window.which_clicked); PlaySound(clip_26Seedlings0589760242);\" class=\"jspsych-btn\" style=\"background-color: white;\">Clip 1</button><audio src=\"audio/selected_audio_files/clips_to_use/0315729720.wav\" id = \"clip_26Seedlings0315729720\"></audio><button id=\"audio_button_26Seedlings0315729720\" onclick=\"ChangeColour(audio_button_26Seedlings0315729720); window.which_clicked = UpdateClicked(this.id,window.which_clicked);window.which_clicked = EnableButtons(window.which_clicked); PlaySound(clip_26Seedlings0315729720);\" class=\"jspsych-btn\" style=\"background-color: white;\">Clip 2</button><audio src=\"audio/selected_audio_files/clips_to_use/0298154081.wav\" id = \"clip_26Seedlings0298154081\"></audio><button id=\"audio_button_26Seedlings0298154081\" onclick=\"ChangeColour(audio_button_26Seedlings0298154081); window.which_clicked = UpdateClicked(this.id,window.which_clicked);window.which_clicked = EnableButtons(window.which_clicked); PlaySound(clip_26Seedlings0298154081);\" class=\"jspsych-btn\" style=\"background-color: white;\">Clip 3</button><audio src=\"audio/selected_audio_files/clips_to_use/0895309731.wav\" id = \"clip_26Seedlings0895309731\"></audio><button id=\"audio_button_26Seedlings0895309731\" onclick=\"ChangeColour(audio_button_26Seedlings0895309731); window.which_clicked = UpdateClicked(this.id,window.which_clicked);window.which_clicked = EnableButtons(window.which_clicked); PlaySound(clip_26Seedlings0895309731);\" class=\"jspsych-btn\" style=\"background-color: white;\">Clip 4</button><audio src=\"audio/selected_audio_files/clips_to_use/0157501165.wav\" id = \"clip_26Seedlings0157501165\"></audio><button id=\"audio_button_26Seedlings0157501165\" onclick=\"ChangeColour(audio_button_26Seedlings0157501165); window.which_clicked = UpdateClicked(this.id,window.which_clicked);window.which_clicked = EnableButtons(window.which_clicked); PlaySound(clip_26Seedlings0157501165);\" class=\"jspsych-btn\" style=\"background-color: white;\">Clip 5</button><br><audio src=\"audio/selected_audio_files/clips_to_use/0141806994.wav\" id = \"clip_26Seedlings0141806994\"></audio><button id=\"audio_button_26Seedlings0141806994\" onclick=\"ChangeColour(audio_button_26Seedlings0141806994); window.which_clicked = UpdateClicked(this.id,window.which_clicked);window.which_clicked = EnableButtons(window.which_clicked); PlaySound(clip_26Seedlings0141806994);\" class=\"jspsych-btn\" style=\"background-color: white;\">Clip 6</button><audio src=\"audio/selected_audio_files/clips_to_use/0588609304.wav\" id = \"clip_26Seedlings0588609304\"></audio><button id=\"audio_button_26Seedlings0588609304\" onclick=\"ChangeColour(audio_button_26Seedlings0588609304); window.which_clicked = UpdateClicked(this.id,window.which_clicked);window.which_clicked = EnableButtons(window.which_clicked); PlaySound(clip_26Seedlings0588609304);\" class=\"jspsych-btn\" style=\"background-color: white;\">Clip 7</button><audio src=\"audio/selected_audio_files/clips_to_use/0753696468.wav\" id = \"clip_26Seedlings0753696468\"></audio><button id=\"audio_button_26Seedlings0753696468\" onclick=\"ChangeColour(audio_button_26Seedlings0753696468); window.which_clicked = UpdateClicked(this.id,window.which_clicked);window.which_clicked = EnableButtons(window.which_clicked); PlaySound(clip_26Seedlings0753696468);\" class=\"jspsych-btn\" style=\"background-color: white;\">Clip 8</button><audio src=\"audio/selected_audio_files/clips_to_use/0535784598.wav\" id = \"clip_26Seedlings0535784598\"></audio><button id=\"audio_button_26Seedlings0535784598\" onclick=\"ChangeColour(audio_button_26Seedlings0535784598); window.which_clicked = UpdateClicked(this.id,window.which_clicked);window.which_clicked = EnableButtons(window.which_clicked); PlaySound(clip_26Seedlings0535784598);\" class=\"jspsych-btn\" style=\"background-color: white;\">Clip 9</button><audio src=\"audio/selected_audio_files/clips_to_use/0444254510.wav\" id = \"clip_26Seedlings0444254510\"></audio><button id=\"audio_button_26Seedlings0444254510\" onclick=\"ChangeColour(audio_button_26Seedlings0444254510); window.which_clicked = UpdateClicked(this.id,window.which_clicked);window.which_clicked = EnableButtons(window.which_clicked); PlaySound(clip_26Seedlings0444254510);\" class=\"jspsych-btn\" style=\"background-color: white;\">Clip 10</button>","subject":"0fqjq8yae91cw2l","time_elapsed":526298,"trial_index":27,"trial_type":"html-button-response","unique_id":"26Seedlings"},{"StartTime":1584375660206,"age_group":"0-7","button_pressed":"0","correct":0,"fullscreen":true,"gender":"F","internal_node_id":"0.0-5.0-1.0-0.9","language":"Non-English","phase":"Language","rt":22110.869999996852,"stimulus":"<audio src=\"audio/selected_audio_files/clips_to_use/0972726511.wav\" id = \"clip_8179Tseltal0972726511\"></audio><button id=\"audio_button_8179Tseltal0972726511\" onclick=\"ChangeColour(audio_button_8179Tseltal0972726511); window.which_clicked = UpdateClicked(this.id,window.which_clicked);window.which_clicked = EnableButtons(window.which_clicked); PlaySound(clip_8179Tseltal0972726511);\" class=\"jspsych-btn\" style=\"background-color: white;\">Clip 1</button><audio src=\"audio/selected_audio_files/clips_to_use/0775678159.wav\" id = \"clip_8179Tseltal0775678159\"></audio><button id=\"audio_button_8179Tseltal0775678159\" onclick=\"ChangeColour(audio_button_8179Tseltal0775678159); window.which_clicked = UpdateClicked(this.id,window.which_clicked);window.which_clicked = EnableButtons(window.which_clicked); PlaySound(clip_8179Tseltal0775678159);\" class=\"jspsych-btn\" style=\"background-color: white;\">Clip 2</button><audio src=\"audio/selected_audio_files/clips_to_use/0451313447.wav\" id = \"clip_8179Tseltal0451313447\"></audio><button id=\"audio_button_8179Tseltal0451313447\" o